framerate = 10f
Time (us), Accel_X (mG), Accel_Y (mG), Accel_Z (mG), Gyro_X (mRad/s), Gyro_Y (mRad/s), Gyro_Z (mRad/s), Mag_X (mGauss), Mag_Y (mGauss), Mag_Z (mGauss)
6492542562, -3, -32, -1000, -6, 0, -1, 225, 211, 218
6492542562, -3, -32, -1000, -6, 0, -1, 225, 211, 218
6492642411, 1, -23, -1000, -4, 3, 1, 225, 211, 219
6492642411, 1, -23, -1000, -4, 3, 1, 225, 211, 219
6492742441, -1, -26, -1002, -2, 1, 2, 225, 207, 214
6492742441, -1, -26, -1002, -2, 1, 2, 225, 207, 214
6492842563, -2, -31, -1000, -3, 0, -1, 225, 210, 218
6492842563, -2, -31, -1000, -3, 0, -1, 225, 210, 218
6492942447, -1, -31, -999, -3, 1, -1, 225, 207, 214
6492942447, -1, -31, -999, -3, 1, -1, 225, 207, 214
6493042442, 1, -27, -1001, -4, 3, 1, 225, 211, 219
6493042442, 1, -27, -1001, -4, 3, 1, 225, 211, 219
6493142498, 0, -19, -997, -2, 3, 2, 225, 212, 219
6493142498, 0, -19, -997, -2, 3, 2, 225, 212, 219
6493242382, 0, -18, -999, -3, 0, 8, 225, 212, 219
6493242382, 0, -18, -999, -3, 0, 8, 225, 212, 219
6493342385, 0, -23, -1000, -2, 2, 15, 225, 212, 219
6493342385, 0, -23, -1000, -2, 2, 15, 225, 212, 219
6493442435, -6, -33, -1000, -2, 4, 11, 225, 211, 219
6493442435, -6, -33, -1000, -2, 4, 11, 225, 211, 219
6493542450, -6, -26, -998, -2, -3, -10, 225, 209, 216
6493542450, -6, -26, -998, -2, -3, -10, 225, 209, 216
6493642477, 2, -22, -1006, 0, 1, -11, 225, 210, 218
6493642477, 2, -22, -1006, 0, 1, -11, 225, 210, 218
6493742671, -3, -33, -996, -4, 4, 0, 224, 202, 209
6493742671, -3, -33, -996, -4, 4, 0, 224, 202, 209
6493842499, 0, -28, -998, -5, 1, 16, 225, 195, 201
6493842499, 0, -28, -998, -5, 1, 16, 225, 195, 201
6493942498, -4, -20, -998, -5, 4, 17, 225, 201, 207
6493942498, -4, -20, -998, -5, 4, 17, 225, 201, 207
6494042493, -2, -23, -999, -4, 1, 5, 224, 208, 216
6494042493, -2, -23, -999, -4, 1, 5, 224, 208, 216
6494142390, 7, -10, -1002, -5, 2, 14, 225, 209, 217
6494142390, 7, -10, -1002, -5, 2, 14, 225, 209, 217
6494242469, 0, -8, -1009, -4, 1, 26, 224, 208, 217
6494242469, 0, -8, -1009, -4, 1, 26, 224, 208, 217
6494342542, 0, -28, -998, -4, 2, 18, 224, 208, 217
6494342542, 0, -28, -998, -4, 2, 18, 224, 208, 217
6494442466, 3, -19, -994, -2, 0, 10, 224, 207, 216
6494442466, 3, -19, -994, -2, 0, 10, 224, 207, 216
6494542422, 0, -20, -998, -2, 1, 6, 223, 203, 212
6494542422, 0, -20, -998, -2, 1, 6, 223, 203, 212
6494642500, 4, -21, -999, -4, -1, 9, 223, 204, 213
6494642500, 4, -21, -999, -4, -1, 9, 223, 204, 213
6494742413, 0, -17, -1000, -2, 3, 15, 222, 197, 206
6494742413, 0, -17, -1000, -2, 3, 15, 222, 197, 206
6494842450, -4, -47, -997, -6, 7, 5, 221, 205, 213
6494842450, -4, -47, -997, -6, 7, 5, 221, 205, 213
6494942640, -3, -57, -1005, -2, 1, -1, 221, 199, 206
6494942640, -3, -57, -1005, -2, 1, -1, 221, 199, 206
6495042491, 4, -32, -997, -5, 3, 0, 220, 198, 205
6495042491, 4, -32, -997, -5, 3, 0, 220, 198, 205
6495142516, 2, -44, -1004, -5, 2, 1, 220, 204, 210
6495142516, 2, -44, -1004, -5, 2, 1, 220, 204, 210
6495242466, 2, -33, -1000, -4, 1, 2, 220, 205, 210
6495242466, 2, -33, -1000, -4, 1, 2, 220, 205, 210
6495342465, -1, -30, -996, -5, 3, 2, 220, 204, 209
6495342465, -1, -30, -996, -5, 3, 2, 220, 204, 209
6495442477, 2, -30, -1006, -4, 4, 0, 220, 205, 209
6495442477, 2, -30, -1006, -4, 4, 0, 220, 205, 209
6495547672, 1, -30, -1001, -1, 1, 6, 220, 204, 208
6495547672, 1, -30, -1001, -1, 1, 6, 220, 204, 208
6495642559, -1, -30, -994, -2, 0, 0, 220, 201, 205
6495642559, -1, -30, -994, -2, 0, 0, 220, 201, 205
6495742542, -2, -21, -1000, -5, 0, -2, 220, 199, 203
6495742542, -2, -21, -1000, -5, 0, -2, 220, 199, 203
6495842653, 0, -27, -1007, -3, 2, 2, 220, 191, 193
6495842653, 0, -27, -1007, -3, 2, 2, 220, 191, 193
6495942453, 2, -34, -996, -3, 4, 0, 220, 193, 196
6495942453, 2, -34, -996, -3, 4, 0, 220, 193, 196
6496042465, 3, -26, -996, -4, 0, 2, 219, 202, 205
6496042465, 3, -26, -996, -4, 0, 2, 219, 202, 205
6496142505, -7, -18, -999, -4, 1, 1, 219, 204, 207
6496142505, -7, -18, -999, -4, 1, 1, 219, 204, 207
6496242415, 0, -21, -1000, -4, 3, -1, 219, 204, 207
6496242415, 0, -21, -1000, -4, 3, -1, 219, 204, 207
6496342501, 1, -21, -999, -5, 5, 2, 219, 204, 207
6496342501, 1, -21, -999, -5, 5, 2, 219, 204, 207
6496442628, 0, -18, -1006, -4, 1, 4, 219, 204, 206
6496442628, 0, -18, -1006, -4, 1, 4, 219, 204, 206
6496542582, 1, -19, -998, -4, 0, 4, 218, 202, 205
6496542582, 1, -19, -998, -4, 0, 4, 218, 202, 205
6496642384, 0, -28, -1000, -4, 0, 2, 218, 196, 198
6496642384, 0, -28, -1000, -4, 0, 2, 218, 196, 198
6496742535, 4, -26, -1000, -4, 2, 2, 217, 201, 204
6496742535, 4, -26, -1000, -4, 2, 2, 217, 201, 204
6496842482, 1, -19, -1001, -4, 2, 7, 217, 197, 199
6496842482, 1, -19, -1001, -4, 2, 7, 217, 197, 199
6496942792, 0, -27, -1002, -4, 0, 13, 217, 204, 204
6496942792, 0, -27, -1002, -4, 0, 13, 217, 204, 204
6497042806, -5, -18, -998, -3, 3, 7, 216, 205, 205
6497042806, -5, -18, -998, -3, 3, 7, 216, 205, 205
6497142438, 0, -23, -994, -5, 4, 6, 216, 197, 196
6497142438, 0, -23, -994, -5, 4, 6, 216, 197, 196
6497242477, 3, -25, -995, -5, 5, 8, 216, 202, 201
6497242477, 3, -25, -995, -5, 5, 8, 216, 202, 201
6497342468, 1, -31, -1002, -3, 0, 6, 216, 203, 201
6497342468, 1, -31, -1002, -3, 0, 6, 216, 203, 201
6497442447, -8, -22, -999, -2, -3, 5, 215, 204, 201
6497442447, -8, -22, -999, -2, -3, 5, 215, 204, 201
6497542479, -2, -27, -1001, -4, 5, 2, 215, 204, 199
6497542479, -2, -27, -1001, -4, 5, 2, 215, 204, 199
6497642490, 1, -31, -1006, -4, 4, 5, 215, 201, 197
6497642490, 1, -31, -1006, -4, 4, 5, 215, 201, 197
6497742685, -2, -39, -996, -2, 3, 6, 215, 200, 196
6497742685, -2, -39, -996, -2, 3, 6, 215, 200, 196
6497842524, 3, -25, -1001, 0, 0, 5, 215, 190, 185
6497842524, 3, -25, -1001, 0, 0, 5, 215, 190, 185
6497942576, 2, -19, -999, -5, 5, 0, 213, 196, 193
6497942576, 2, -19, -999, -5, 5, 0, 213, 196, 193
6498042396, -8, -36, -1004, -3, 1, 5, 212, 204, 201
6498042396, -8, -36, -1004, -3, 1, 5, 212, 204, 201
6498142384, 1, -22, -997, -4, 1, 9, 212, 205, 201
6498142384, 1, -22, -997, -4, 1, 9, 212, 205, 201
6498242469, 9, -13, -986, -1, -4, 4, 212, 206, 201
6498242469, 9, -13, -986, -1, -4, 4, 212, 206, 201
6498342475, 0, -36, -1007, -2, 3, 4, 212, 205, 199
6498342475, 0, -36, -1007, -2, 3, 4, 212, 205, 199
6498442494, -10, -39, -1007, -2, 3, 4, 211, 205, 199
6498442494, -10, -39, -1007, -2, 3, 4, 211, 205, 199
6498542624, 1, -25, -996, -4, 0, 3, 211, 206, 199
6498542624, 1, -25, -996, -4, 0, 3, 211, 206, 199
6498642480, 3, -25, -1003, -3, 5, 3, 211, 205, 197
6498642480, 3, -25, -1003, -3, 5, 3, 211, 205, 197
6498742409, -3, -28, -1001, -2, 1, 4, 211, 205, 196
6498742409, -3, -28, -1001, -2, 1, 4, 211, 205, 196
6498842618, 2, -25, -994, -5, 1, 1, 211, 203, 194
6498842618, 2, -25, -994, -5, 1, 1, 211, 203, 194
6498942557, -2, -34, -1009, -4, 5, 0, 210, 205, 195
6498942557, -2, -34, -1009, -4, 5, 0, 210, 205, 195
6499042548, -1, -30, -1003, -3, 2, 1, 210, 200, 188
6499042548, -1, -30, -1003, -3, 2, 1, 210, 200, 188
6499142609, 5, -21, -1002, -3, 1, 2, 210, 208, 197
6499142609, 5, -21, -1002, -3, 1, 2, 210, 208, 197
6499242502, 0, -25, -998, -5, 3, 2, 210, 208, 196
6499242502, 0, -25, -998, -5, 3, 2, 210, 208, 196
6499342496, 1, -31, -1006, -3, 0, 1, 209, 208, 196
6499342496, 1, -31, -1006, -3, 0, 1, 209, 208, 196
6499442537, 1, -26, -999, -3, 2, 1, 209, 210, 196
6499442537, 1, -26, -999, -3, 2, 1, 209, 210, 196
6499542522, 2, -22, -999, -4, 1, 1, 209, 209, 195
6499542522, 2, -22, -999, -4, 1, 1, 209, 209, 195
6499642438, 1, -20, -1002, -2, 0, 2, 209, 206, 191
6499642438, 1, -20, -1002, -2, 0, 2, 209, 206, 191
6499742709, -2, -19, -995, -4, 2, 1, 209, 207, 192
6499742709, -2, -19, -995, -4, 2, 1, 209, 207, 192
6499842575, 0, -28, -1000, -6, 2, 3, 210, 196, 179
6499842575, 0, -28, -1000, -6, 2, 3, 210, 196, 179
6499942523, 4, -24, -1004, -2, 3, 3, 210, 198, 181
6499942523, 4, -24, -1004, -2, 3, 3, 210, 198, 181
6500042618, 3, -21, -998, -3, 3, 5, 209, 210, 192
6500042618, 3, -21, -998, -3, 3, 5, 209, 210, 192
6500142361, 1, -37, -1002, -3, 2, 1, 209, 212, 194
6500142361, 1, -37, -1002, -3, 2, 1, 209, 212, 194
6500242388, -2, -37, -1000, -3, 0, -1, 208, 213, 194
6500242388, -2, -37, -1000, -3, 0, -1, 208, 213, 194
6500342437, -2, -30, -999, -3, 2, -1, 208, 213, 193
6500342437, -2, -30, -999, -3, 2, -1, 208, 213, 193
6500442451, 2, -24, -998, -4, 5, 0, 208, 214, 193
6500442451, 2, -24, -998, -4, 5, 0, 208, 214, 193
6500542647, 3, -25, -1000, -5, 2, 3, 208, 214, 193
6500542647, 3, -25, -1000, -5, 2, 3, 208, 214, 193
6500642610, 2, -34, -997, -3, 0, 0, 207, 212, 191
6500642610, 2, -34, -997, -3, 0, 0, 207, 212, 191
6500742481, 0, -26, -996, -4, 0, -1, 207, 212, 190
6500742481, 0, -26, -996, -4, 0, -1, 207, 212, 190
6500842424, 2, -27, -997, -4, 0, 0, 207, 208, 185
6500842424, 2, -27, -997, -4, 0, 0, 207, 208, 185
6500942511, -2, -31, -1003, -3, 1, -1, 207, 214, 190
6500942511, -2, -31, -1003, -3, 1, -1, 207, 214, 190
6501042435, 2, -27, -1001, -4, 1, -1, 207, 213, 190
6501042435, 2, -27, -1001, -4, 1, -1, 207, 213, 190
6501142455, 3, -29, -1005, -2, 3, 0, 207, 217, 193
6501142455, 3, -29, -1005, -2, 3, 0, 207, 217, 193
6501242549, -1, -26, -996, -3, 3, -3, 206, 217, 192
6501242549, -1, -26, -996, -3, 3, -3, 206, 217, 192
6501342463, 0, -18, -996, -4, 1, 0, 207, 218, 192
6501342463, 0, -18, -996, -4, 1, 0, 207, 218, 192
6501442447, -1, -29, -999, -5, 5, -3, 206, 218, 192
6501442447, -1, -29, -999, -5, 5, -3, 206, 218, 192
6501542479, 0, -41, -997, -3, 1, -3, 206, 217, 191
6501542479, 0, -41, -997, -3, 1, -3, 206, 217, 191
6501642483, 3, -27, -1001, -2, -1, -4, 206, 214, 188
6501642483, 3, -27, -1001, -2, -1, -4, 206, 214, 188
6501742434, -2, -21, -1000, -3, 1, -4, 206, 212, 186
6501742434, -2, -21, -1000, -3, 1, -4, 206, 212, 186
6501842568, 0, -24, -1001, -3, 0, -5, 206, 204, 176
6501842568, 0, -24, -1001, -3, 0, -5, 206, 204, 176
6501942473, 5, -18, -1001, -5, 2, 0, 207, 204, 176
6501942473, 5, -18, -1001, -5, 2, 0, 207, 204, 176
6502042495, 4, -28, -1000, -4, 3, 0, 206, 213, 186
6502042495, 4, -28, -1000, -4, 3, 0, 206, 213, 186
6502148005, 0, -14, -996, -3, 0, -4, 206, 222, 194
6502148005, 0, -14, -996, -3, 0, -4, 206, 222, 194
6502242468, 4, -23, -1003, -3, 0, -4, 206, 217, 187
6502242468, 4, -23, -1003, -3, 0, -4, 206, 217, 187
6502342420, 5, -17, -997, -4, 0, -1, 206, 215, 185
6502342420, 5, -17, -997, -4, 0, -1, 206, 215, 185
6502442464, 1, -23, -1000, -4, 2, 0, 205, 222, 192
6502442464, 1, -23, -1000, -4, 2, 0, 205, 222, 192
6502542491, 4, -25, -1004, -1, 0, -6, 205, 223, 192
6502542491, 4, -25, -1004, -1, 0, -6, 205, 223, 192
6502642524, 0, -35, -1002, -2, 2, -7, 205, 220, 188
6502642524, 0, -35, -1002, -2, 2, -7, 205, 220, 188
6502742584, 2, -37, -1003, -4, 0, -3, 205, 224, 192
6502742584, 2, -37, -1003, -4, 0, -3, 205, 224, 192
6502842468, -1, -32, -1001, -3, 0, 0, 205, 220, 186
6502842468, -1, -32, -1001, -3, 0, 0, 205, 220, 186
6502942473, -2, -27, -1002, -3, 2, -4, 205, 226, 192
6502942473, -2, -27, -1002, -3, 2, -4, 205, 226, 192
6503042527, 4, -27, -998, -2, 0, -3, 205, 225, 190
6503042527, 4, -27, -998, -2, 0, -3, 205, 225, 190
6503142541, 1, -28, -998, -4, 2, 0, 205, 227, 192
6503142541, 1, -28, -998, -4, 2, 0, 205, 227, 192
6503342584, 1, -24, -1003, -3, 0, 0, 205, 229, 193
6503342584, 1, -24, -1003, -3, 0, 0, 205, 229, 193
6503442491, 0, -22, -1001, -4, 2, -4, 205, 230, 193
6503442491, 0, -22, -1001, -4, 2, -4, 205, 230, 193
6503542469, 3, -20, -1003, -3, 1, -1, 205, 230, 193
6503542469, 3, -20, -1003, -3, 1, -1, 205, 230, 193
6503642534, 1, -31, -995, -2, 2, 0, 205, 230, 192
6503642534, 1, -31, -995, -2, 2, 0, 205, 230, 192
6503742443, 0, -26, -997, -3, 0, 1, 205, 231, 192
6503742443, 0, -26, -997, -3, 0, 1, 205, 231, 192
6503842550, 0, -23, -998, -2, 1, 3, 206, 219, 180
6503842550, 0, -23, -998, -2, 1, 3, 206, 219, 180
6503942630, 0, -27, -1002, -3, 5, 3, 206, 217, 178
6503942630, 0, -27, -1002, -3, 5, 3, 206, 217, 178
6504042481, -3, -31, -998, -3, 0, 4, 206, 226, 187
6504042481, -3, -31, -998, -3, 0, 4, 206, 226, 187
6504142453, 10, -25, -998, -3, 0, 10, 206, 234, 196
6504142453, 10, -25, -998, -3, 0, 10, 206, 234, 196
6504242435, 0, -22, -999, -3, 3, 12, 205, 235, 196
6504242435, 0, -22, -999, -3, 3, 12, 205, 235, 196
6504342380, 2, -23, -1003, -3, 5, 10, 206, 234, 196
6504342380, 2, -23, -1003, -3, 5, 10, 206, 234, 196
6504442387, -2, -28, -1000, -2, 2, 4, 206, 235, 196
6504442387, -2, -28, -1000, -2, 2, 4, 206, 235, 196
6504542524, 4, -37, -997, -3, 0, 5, 206, 235, 196
6504542524, 4, -37, -997, -3, 0, 5, 206, 235, 196
6504642434, -4, -22, -997, -3, -3, 3, 206, 234, 195
6504642434, -4, -22, -997, -3, -3, 3, 206, 234, 195
6504742447, -4, -18, -1004, -3, 1, 2, 206, 236, 197
6504742447, -4, -18, -1004, -3, 1, 2, 206, 236, 197
6504842436, 0, -16, -1001, -2, 3, 9, 206, 230, 191
6504842436, 0, -16, -1001, -2, 3, 9, 206, 230, 191
6504942439, -3, -31, -997, -3, 1, 13, 207, 236, 197
6504942439, -3, -31, -997, -3, 1, 13, 207, 236, 197
6505042473, 2, -43, -1009, -2, 0, 6, 207, 235, 196
6505042473, 2, -43, -1009, -2, 0, 6, 207, 235, 196
6505142454, 0, -29, -999, -2, 0, 3, 207, 237, 199
6505142454, 0, -29, -999, -2, 0, 3, 207, 237, 199
6505242453, 5, -34, -992, -4, -1, 1, 208, 238, 200
6505242453, 5, -34, -992, -4, -1, 1, 208, 238, 200
6505342445, -5, -31, -1000, -5, -2, -5, 208, 239, 201
6505342445, -5, -31, -1000, -5, -2, -5, 208, 239, 201
6505442515, 1, -40, -1001, -6, 0, -17, 208, 238, 198
6505442515, 1, -40, -1001, -6, 0, -17, 208, 238, 198
6505542406, 2, -32, -1004, -6, 0, -12, 208, 241, 201
6505542406, 2, -32, -1004, -6, 0, -12, 208, 241, 201
6505642411, -2, -33, -1015, -2, -1, -6, 208, 240, 201
6505642411, -2, -33, -1015, -2, -1, -6, 208, 240, 201
6505742442, -1, -15, -1005, 0, -1, 2, 208, 241, 202
6505742442, -1, -15, -1005, 0, -1, 2, 208, 241, 202
6505842477, -6, -26, -994, -3, 2, -3, 209, 232, 191
6505842477, -6, -26, -994, -3, 2, -3, 209, 232, 191
6505942569, 6, -18, -997, -3, 0, -6, 209, 230, 189
6505942569, 6, -18, -997, -3, 0, -6, 209, 230, 189
6506042512, -2, -28, -1000, -2, 0, 0, 209, 231, 189
6506042512, -2, -28, -1000, -2, 0, 0, 209, 231, 189
6506142444, 0, -30, -1007, -2, 0, -4, 209, 243, 203
6506142444, 0, -30, -1007, -2, 0, -4, 209, 243, 203
6506242395, -4, -27, -994, -4, 2, -9, 210, 245, 204
6506242395, -4, -27, -994, -4, 2, -9, 210, 245, 204
6506342436, -7, -19, -1005, -5, 0, -18, 210, 245, 205
6506342436, -7, -19, -1005, -5, 0, -18, 210, 245, 205
6506442377, -1, -38, -1012, -3, 2, -21, 210, 246, 205
6506442377, -1, -38, -1012, -3, 2, -21, 210, 246, 205
6506542403, 0, -49, -1014, -1, 0, -18, 210, 246, 206
6506542403, 0, -49, -1014, -1, 0, -18, 210, 246, 206
6506642641, 7, -34, -1005, -3, 1, -3, 211, 245, 204
6506642641, 7, -34, -1005, -3, 1, -3, 211, 245, 204
6506742449, -3, -15, -995, -3, -2, 7, 211, 240, 199
6506742449, -3, -15, -995, -3, -2, 7, 211, 240, 199
6506842442, -2, -21, -995, -5, -2, 2, 211, 241, 201
6506842442, -2, -21, -995, -5, -2, 2, 211, 241, 201
6506942460, -2, -24, -1004, -3, -1, -4, 212, 248, 208
6506942460, -2, -24, -1004, -3, -1, -4, 212, 248, 208
6507042370, -6, -32, -1001, -4, 1, -7, 212, 240, 201
6507042370, -6, -32, -1001, -4, 1, -7, 212, 240, 201
6507142375, 5, -34, -1000, -3, 2, -4, 212, 249, 210
6507142375, 5, -34, -1000, -3, 2, -4, 212, 249, 210
6507247703, 1, -30, -1001, -2, 2, -1, 212, 252, 214
6507247703, 1, -30, -1001, -2, 2, -1, 212, 252, 214
6507342670, -2, -42, -998, -2, 0, -4, 213, 251, 213
6507342670, -2, -42, -998, -2, 0, -4, 213, 251, 213
6507442437, -4, -37, -996, -5, 2, -2, 213, 244, 205
6507442437, -4, -37, -996, -5, 2, -2, 213, 244, 205
6507542482, 1, -30, -999, -4, 0, 1, 213, 249, 212
6507542482, 1, -30, -999, -4, 0, 1, 213, 249, 212
6507642380, -5, -21, -994, -4, 1, 0, 213, 246, 210
6507642380, -5, -21, -994, -4, 1, 0, 213, 246, 210
6507742451, -2, -25, -998, -2, 2, -3, 213, 248, 213
6507742451, -2, -25, -998, -2, 2, -3, 213, 248, 213
6507842483, -2, -34, -997, -3, 2, -2, 213, 238, 203
6507842483, -2, -34, -997, -3, 2, -2, 213, 238, 203
6507942547, -4, -34, -1002, -2, 2, -2, 213, 236, 201
6507942547, -4, -34, -1002, -2, 2, -2, 213, 236, 201
6508042558, -1, -23, -996, -4, 4, -6, 213, 238, 202
6508042558, -1, -23, -996, -4, 4, -6, 213, 238, 202
6508142504, -5, -22, -999, -3, 1, -7, 214, 244, 210
6508142504, -5, -22, -999, -3, 1, -7, 214, 244, 210
6508242424, 0, -32, -997, -4, 2, -6, 214, 251, 218
6508242424, 0, -32, -997, -4, 2, -6, 214, 251, 218
6508342392, -2, -39, -1000, -3, 3, -6, 214, 252, 218
6508342392, -2, -39, -1000, -3, 3, -6, 214, 252, 218
6508442430, 2, -34, -1000, -4, 2, -5, 214, 251, 219
6508442430, 2, -34, -1000, -4, 2, -5, 214, 251, 219
6508542389, -1, -37, -1001, -3, 2, -4, 214, 252, 219
6508542389, -1, -37, -1001, -3, 2, -4, 214, 252, 219
6508642469, -1, -30, -996, -3, 0, -2, 214, 248, 217
6508642469, -1, -30, -996, -3, 0, -2, 214, 248, 217
6508742510, -8, -20, -1004, -3, -3, 2, 214, 251, 219
6508742510, -8, -20, -1004, -3, -3, 2, 214, 251, 219
6508842452, -9, -20, -1000, -4, 6, -7, 214, 248, 217
6508842452, -9, -20, -1000, -4, 6, -7, 214, 248, 217
6508942450, 0, -20, -998, -5, 4, -10, 214, 246, 216
6508942450, 0, -20, -998, -5, 4, -10, 214, 246, 216
6509042449, 0, -29, -1001, -5, 2, -5, 214, 246, 216
6509042449, 0, -29, -1001, -5, 2, -5, 214, 246, 216
6509142399, -3, -27, -1004, -2, 0, -2, 214, 250, 221
6509142399, -3, -27, -1004, -2, 0, -2, 214, 250, 221
6509242410, -6, -30, -1003, 0, 0, -5, 214, 252, 223
6509242410, -6, -30, -1003, 0, 0, -5, 214, 252, 223
6509342516, 0, -37, -1001, -1, 2, -8, 214, 252, 224
6509342516, 0, -37, -1001, -1, 2, -8, 214, 252, 224
6509442461, 0, -41, -1003, 0, 0, -2, 214, 252, 225
6509442461, 0, -41, -1003, 0, 0, -2, 214, 252, 225
6509542477, -6, -29, -996, -3, 1, -4, 215, 252, 225
6509542477, -6, -29, -996, -3, 1, -4, 215, 252, 225
6509642495, 0, -23, -998, -3, 3, -6, 214, 251, 225
6509642495, 0, -23, -998, -3, 3, -6, 214, 251, 225
6509742392, -1, -29, -999, -4, 1, -4, 215, 250, 225
6509742392, -1, -29, -999, -4, 1, -4, 215, 250, 225
6509842438, 0, -35, -1000, -3, 1, -4, 215, 251, 226
6509842438, 0, -35, -1000, -3, 1, -4, 215, 251, 226
6509942448, -3, -34, -1001, -3, 1, -6, 215, 243, 217
6509942448, -3, -34, -1001, -3, 1, -6, 215, 243, 217
6510042570, 0, -37, -998, -4, 3, -5, 214, 250, 225
6510042570, 0, -37, -998, -4, 3, -5, 214, 250, 225
6510142500, -1, -36, -1003, -4, 3, -5, 215, 248, 223
6510142500, -1, -36, -1003, -4, 3, -5, 215, 248, 223
6510242530, -1, -31, -996, -4, 2, -5, 214, 258, 234
6510242530, -1, -31, -996, -4, 2, -5, 214, 258, 234
6510342413, 1, -20, -996, -4, 1, -5, 214, 258, 235
6510342413, 1, -20, -996, -4, 1, -5, 214, 258, 235
6510442398, -1, -29, -1000, -5, 2, -5, 214, 258, 236
6510442398, -1, -29, -1000, -5, 2, -5, 214, 258, 236
6510542457, 0, -27, -1005, -4, 2, -2, 215, 258, 235
6510542457, 0, -27, -1005, -4, 2, -2, 215, 258, 235
6510642373, 0, -22, -994, -4, 3, -1, 214, 255, 233
6510642373, 0, -22, -994, -4, 3, -1, 214, 255, 233
6510742445, 0, -23, -1000, -6, 4, -3, 214, 257, 236
6510742445, 0, -23, -1000, -6, 4, -3, 214, 257, 236
6510842482, 2, -24, -1003, -3, 3, -1, 215, 256, 236
6510842482, 2, -24, -1003, -3, 3, -1, 215, 256, 236
6510942493, -2, -32, -992, -4, 1, -4, 215, 251, 231
6510942493, -2, -32, -992, -4, 1, -4, 215, 251, 231
6511042391, -1, -33, -1000, -5, 2, -6, 215, 255, 236
6511042391, -1, -33, -1000, -5, 2, -6, 215, 255, 236
6511142434, -2, -28, -996, -4, 1, -3, 215, 256, 238
6511142434, -2, -28, -996, -4, 1, -3, 215, 256, 238
6511242383, -5, -23, -996, -4, 4, -5, 215, 258, 239
6511242383, -5, -23, -996, -4, 4, -5, 215, 258, 239
6511342454, -2, -29, -1001, -4, 4, -5, 216, 257, 240
6511342454, -2, -29, -1001, -4, 4, -5, 216, 257, 240
6511442488, 3, -28, -997, -2, 2, 0, 216, 257, 240
6511442488, 3, -28, -997, -2, 2, 0, 216, 257, 240
6511542437, -2, -27, -990, -3, 2, -3, 216, 256, 240
6511542437, -2, -27, -990, -3, 2, -3, 216, 256, 240
6511642471, -2, -27, -1003, -3, 3, -2, 216, 254, 240
6511642471, -2, -27, -1003, -3, 3, -2, 216, 254, 240
6511742432, -4, -34, -1008, -1, 4, 0, 216, 252, 237
6511742432, -4, -34, -1008, -1, 4, 0, 216, 252, 237
6511842442, 0, -34, -998, -2, 5, 0, 216, 249, 235
6511842442, 0, -34, -998, -2, 5, 0, 216, 249, 235
6511942437, 2, -27, -1002, -4, 4, 3, 217, 241, 227
6511942437, 2, -27, -1002, -4, 4, 3, 217, 241, 227
6512042491, 3, -36, -997, -5, 4, 12, 217, 241, 228
6512042491, 3, -36, -997, -5, 4, 12, 217, 241, 228
6512142447, -2, -36, -998, -5, 0, 7, 217, 250, 238
6512142447, -2, -36, -998, -5, 0, 7, 217, 250, 238
6512242463, -9, -28, -1007, -2, 1, 1, 217, 255, 244
6512242463, -9, -28, -1007, -2, 1, 1, 217, 255, 244
6512342540, 5, -25, -997, -3, 5, -3, 217, 255, 245
6512342540, 5, -25, -997, -3, 5, -3, 217, 255, 245
6512442823, 5, -43, -1001, -3, 2, 3, 217, 254, 244
6512442823, 5, -43, -1001, -3, 2, 3, 217, 254, 244
6512542438, -1, -36, -1000, -3, 0, 6, 217, 250, 241
6512542438, -1, -36, -1000, -3, 0, 6, 217, 250, 241
6512642438, -1, -25, -999, -1, 2, 4, 218, 246, 238
6512642438, -1, -25, -999, -1, 2, 4, 218, 246, 238
6512742380, -3, -30, -998, -3, 3, 4, 218, 252, 245
6512742380, -3, -30, -998, -3, 3, 4, 218, 252, 245
6512842504, 0, -33, -1003, -4, 1, 0, 218, 251, 245
6512842504, 0, -33, -1003, -4, 1, 0, 218, 251, 245
6512942495, 3, -36, -1005, -3, 2, 1, 218, 249, 243
6512942495, 3, -36, -1005, -3, 2, 1, 218, 249, 243
6513042450, 0, -32, -1000, -2, 1, 2, 219, 246, 241
6513042450, 0, -32, -1000, -2, 1, 2, 219, 246, 241
6513142376, -1, -32, -999, -3, 2, 1, 218, 252, 247
6513142376, -1, -32, -999, -3, 2, 1, 218, 252, 247
6513242442, -2, -27, -1000, -5, 3, 3, 218, 254, 249
6513242442, -2, -27, -1000, -5, 3, 3, 218, 254, 249
6513342375, 0, -23, -1000, -4, 4, 5, 219, 253, 248
6513342375, 0, -23, -1000, -4, 4, 5, 219, 253, 248
6513442459, 0, -23, -997, -4, 1, 7, 219, 252, 248
6513442459, 0, -23, -997, -4, 1, 7, 219, 252, 248
6513642423, -1, -31, -997, -5, 0, 5, 219, 250, 248
6513642423, -1, -31, -997, -5, 0, 5, 219, 250, 248
6513742441, -2, -19, -998, -4, 2, 3, 219, 250, 249
6513742441, -2, -19, -998, -4, 2, 3, 219, 250, 249
6513842475, 1, -39, -999, -2, 0, 2, 219, 249, 248
6513842475, 1, -39, -999, -2, 0, 2, 219, 249, 248
6513942379, -2, -28, -1001, -3, 2, 0, 220, 237, 235
6513942379, -2, -28, -1001, -3, 2, 0, 220, 237, 235
6514042434, 0, -31, -997, -2, 0, -2, 220, 241, 240
6514042434, 0, -31, -997, -2, 0, -2, 220, 241, 240
6514142480, 6, -17, -997, -4, 1, 3, 221, 239, 239
6514142480, 6, -17, -997, -4, 1, 3, 221, 239, 239
6514242439, -5, -29, -1000, -4, 1, 5, 220, 249, 249
6514242439, -5, -29, -1000, -4, 1, 5, 220, 249, 249
6514342467, -1, -30, -1001, -3, 1, 7, 221, 249, 250
6514342467, -1, -30, -1001, -3, 1, 7, 221, 249, 250
6514442482, 0, -16, -997, -3, 0, 4, 221, 249, 251
6514442482, 0, -16, -997, -3, 0, 4, 221, 249, 251
6514542372, -3, -22, -995, -4, 0, 5, 221, 248, 250
6514542372, -3, -22, -995, -4, 0, 5, 221, 248, 250
6514642382, -2, -21, -1000, -4, 0, 6, 221, 246, 250
6514642382, -2, -21, -1000, -4, 0, 6, 221, 246, 250
6514742422, 0, -27, -998, -4, 0, 6, 221, 245, 250
6514742422, 0, -27, -998, -4, 0, 6, 221, 245, 250
6514842441, -3, -34, -999, -3, -1, 3, 222, 244, 250
6514842441, -3, -34, -999, -3, -1, 3, 222, 244, 250
6514942436, -3, -32, -1003, -5, -2, 1, 223, 242, 248
6514942436, -3, -32, -1003, -5, -2, 1, 223, 242, 248
6515042481, -4, -35, -1001, -4, 0, -1, 223, 244, 251
6515042481, -4, -35, -1001, -4, 0, -1, 223, 244, 251
6515142379, -6, -34, -998, -4, 1, -5, 223, 245, 254
6515142379, -6, -34, -998, -4, 1, -5, 223, 245, 254
6515242392, -2, -40, -996, -4, 0, -11, 223, 246, 255
6515242392, -2, -40, -996, -4, 0, -11, 223, 246, 255
6515342421, -1, -35, -1002, -3, 0, -6, 223, 246, 255
6515342421, -1, -35, -1002, -3, 0, -6, 223, 246, 255
6515442369, 0, -37, -999, -5, 0, 1, 223, 246, 255
6515442369, 0, -37, -999, -5, 0, 1, 223, 246, 255
6515542449, 0, -31, -999, -5, 1, 2, 223, 245, 255
6515542449, 0, -31, -999, -5, 1, 2, 223, 245, 255
6515642492, -3, -34, -1004, -3, 2, -2, 223, 245, 255
6515642492, -3, -34, -1004, -3, 2, -2, 223, 245, 255
6515742432, 1, -44, -1003, -4, 1, -5, 224, 243, 254
6515742432, 1, -44, -1003, -4, 1, -5, 224, 243, 254
6515842430, 0, -30, -1006, -3, -1, -4, 224, 243, 254
6515842430, 0, -30, -1006, -3, -1, -4, 224, 243, 254
6515942462, 2, -30, -1001, -4, 0, -2, 224, 228, 239
6515942462, 2, -30, -1001, -4, 0, -2, 224, 228, 239
6516042428, -3, -25, -994, -7, 0, -4, 224, 233, 244
6516042428, -3, -25, -994, -7, 0, -4, 224, 233, 244
6516142391, -2, -18, -991, -3, -1, 0, 224, 234, 246
6516142391, -2, -18, -991, -3, -1, 0, 224, 234, 246
6516242505, -11, -17, -1001, -2, -1, 0, 224, 244, 257
6516242505, -11, -17, -1001, -2, -1, 0, 224, 244, 257
6516342462, -5, -33, -1002, -3, 1, -8, 224, 244, 257
6516342462, -5, -33, -1002, -3, 1, -8, 224, 244, 257
6516442460, -3, -29, -1003, -4, 0, -11, 224, 244, 258
6516442460, -3, -29, -1003, -4, 0, -11, 224, 244, 258
6516542452, 3, -32, -1002, -4, -1, 0, 224, 244, 257
6516542452, 3, -32, -1002, -4, -1, 0, 224, 244, 257
6516642450, -3, -29, -996, -5, 0, -1, 224, 243, 257
6516642450, -3, -29, -996, -5, 0, -1, 224, 243, 257
6516742483, -6, -21, -999, -2, 0, -4, 224, 242, 256
6516742483, -6, -21, -999, -2, 0, -4, 224, 242, 256
6516842496, 0, -22, -999, -4, 0, -4, 225, 236, 250
6516842496, 0, -22, -999, -4, 0, -4, 225, 236, 250
6516942498, -9, -33, -1001, -6, 2, -5, 224, 238, 253
6516942498, -9, -33, -1001, -6, 2, -5, 224, 238, 253
6517042419, -3, -21, -1001, -1, -1, -2, 225, 240, 255
6517042419, -3, -21, -1001, -1, -1, -2, 225, 240, 255
6517142440, -1, -33, -997, -3, 1, 0, 225, 242, 257
6517142440, -1, -33, -997, -3, 1, 0, 225, 242, 257
6517242367, -4, -32, -1004, -5, -2, -12, 225, 244, 260
6517242367, -4, -32, -1004, -5, -2, -12, 225, 244, 260
6517342400, 7, -15, -992, -3, 5, -7, 225, 244, 260
6517342400, 7, -15, -992, -3, 5, -7, 225, 244, 260
6517442426, -8, -29, -997, -1, 0, 0, 225, 243, 259
6517442426, -8, -29, -997, -1, 0, 0, 225, 243, 259
6517542696, -7, -40, -992, -4, -3, -6, 225, 245, 262
6517542696, -7, -40, -992, -4, -3, -6, 225, 245, 262
6517642686, 0, -10, -1001, -8, -1, -9, 225, 245, 262
6517642686, 0, -10, -1001, -8, -1, -9, 225, 245, 262
6517742506, -7, -26, -1005, -1, 2, 2, 225, 235, 252
6517742506, -7, -26, -1005, -1, 2, 2, 225, 235, 252
6517842533, -8, -29, -1000, -6, 1, -4, 226, 237, 256
6517842533, -8, -29, -1000, -6, 1, -4, 226, 237, 256
6517942455, -1, -28, -997, -5, 0, -1, 226, 226, 245
6517942455, -1, -28, -997, -5, 0, -1, 226, 226, 245
6518042483, -4, -18, -1003, -4, 0, -6, 227, 227, 246
6518042483, -4, -18, -1003, -4, 0, -6, 227, 227, 246
6518142384, -2, -20, -999, -3, 3, -1, 227, 228, 246
6518142384, -2, -20, -999, -3, 3, -1, 227, 228, 246
6518242443, -4, -27, -1000, -4, 0, 0, 227, 238, 258
6518242443, -4, -27, -1000, -4, 0, 0, 227, 238, 258
6518342520, -6, -36, -997, -4, 6, -4, 227, 242, 262
6518342520, -6, -36, -997, -4, 6, -4, 227, 242, 262
6518442430, -1, -30, -1005, -3, 1, -5, 227, 239, 260
6518442430, -1, -30, -1005, -3, 1, -5, 227, 239, 260
6518542428, -1, -33, -1005, -4, 0, -6, 227, 241, 263
6518542428, -1, -33, -1005, -4, 0, -6, 227, 241, 263
6518642406, -1, -35, -1001, -3, 1, -5, 227, 241, 263
6518642406, -1, -35, -1001, -3, 1, -5, 227, 241, 263
6518742386, -2, -31, -994, -4, 0, -2, 227, 241, 263
6518742386, -2, -31, -994, -4, 0, -2, 227, 241, 263
6518842384, -2, -31, -1003, -4, 1, -2, 227, 241, 263
6518842384, -2, -31, -1003, -4, 1, -2, 227, 241, 263
6518942519, -8, -35, -1005, -3, 0, -4, 227, 236, 258
6518942519, -8, -35, -1005, -3, 0, -4, 227, 236, 258
6519042481, -5, -34, -1005, -2, 0, -7, 228, 237, 260
6519042481, -5, -34, -1005, -2, 0, -7, 228, 237, 260
6519142427, -8, -25, -998, -4, 3, -3, 228, 236, 259
6519142427, -8, -25, -998, -4, 3, -3, 228, 236, 259
6519242485, -2, -26, -998, -5, 5, -4, 227, 241, 264
6519242485, -2, -26, -998, -5, 5, -4, 227, 241, 264
6519342392, -3, -27, -1001, -3, 4, -9, 228, 241, 264
6519342392, -3, -27, -1001, -3, 4, -9, 228, 241, 264
6519442388, 0, -19, -997, -3, 3, -13, 228, 241, 264
6519442388, 0, -19, -997, -3, 3, -13, 228, 241, 264
6519542453, 4, -19, -999, -4, 0, -10, 228, 241, 264
6519542453, 4, -19, -999, -4, 0, -10, 228, 241, 264
6519642443, -2, -26, -996, -4, 1, -8, 228, 241, 264
6519642443, -2, -26, -996, -4, 1, -8, 228, 241, 264
6519742466, -5, -23, -1001, -4, 2, -2, 228, 239, 262
6519742466, -5, -23, -1001, -4, 2, -2, 228, 239, 262
6519842499, -6, -29, -1008, -4, 3, 5, 228, 240, 264
6519842499, -6, -29, -1008, -4, 3, 5, 228, 240, 264
6519942508, -4, -26, -999, -4, 6, -1, 228, 232, 254
6519942508, -4, -26, -999, -4, 6, -1, 228, 232, 254
6520042460, 0, -23, -992, -6, 0, -5, 228, 233, 255
6520042460, 0, -23, -992, -6, 0, -5, 228, 233, 255
6520142447, -1, -27, -1002, -4, -1, -6, 228, 232, 254
6520142447, -1, -27, -1002, -4, -1, -6, 228, 232, 254
6520242444, -1, -28, -1001, -2, 0, -3, 228, 239, 262
6520242444, -1, -28, -1001, -2, 0, -3, 228, 239, 262
6520342470, -4, -23, -997, -2, 0, -6, 228, 245, 268
6520342470, -4, -23, -997, -2, 0, -6, 228, 245, 268
6520442464, -6, -23, -998, -3, 2, -4, 228, 244, 268
6520442464, -6, -23, -998, -3, 2, -4, 228, 244, 268
6520542451, -4, -29, -1000, -4, 2, 0, 229, 244, 267
6520542451, -4, -29, -1000, -4, 2, 0, 229, 244, 267
6520642398, -1, -29, -997, -4, 2, 0, 229, 243, 267
6520642398, -1, -29, -997, -4, 2, 0, 229, 243, 267
6520742525, -2, -33, -999, -4, 0, 7, 229, 242, 266
6520742525, -2, -33, -999, -4, 0, 7, 229, 242, 266
6520842492, -9, -35, -1002, -5, 1, 9, 229, 242, 267
6520842492, -9, -35, -1002, -5, 1, 9, 229, 242, 267
6520942463, -5, -30, -1000, -5, 1, 5, 229, 233, 258
6520942463, -5, -30, -1000, -5, 1, 5, 229, 233, 258
6521042487, -1, -31, -999, -3, 1, 1, 230, 241, 267
6521042487, -1, -31, -999, -3, 1, 1, 230, 241, 267
6521142402, -3, -28, -999, -3, 1, 1, 230, 241, 266
6521142402, -3, -28, -999, -3, 1, 1, 230, 241, 266
6521242414, -3, -27, -996, -2, 3, 3, 230, 242, 268
6521242414, -3, -27, -996, -2, 3, 3, 230, 242, 268
6521342513, -2, -30, -1001, -5, 1, 4, 230, 242, 268
6521342513, -2, -30, -1001, -5, 1, 4, 230, 242, 268
6521442437, 0, -29, -1001, -4, 3, 2, 231, 241, 268
6521442437, 0, -29, -1001, -4, 3, 2, 231, 241, 268
6521542470, -7, -41, -1001, 0, 1, -5, 231, 242, 268
6521542470, -7, -41, -1001, 0, 1, -5, 231, 242, 268
6521642494, -3, -22, -997, -3, 0, -12, 231, 241, 267
6521642494, -3, -22, -997, -3, 0, -12, 231, 241, 267
6521742394, -4, -13, -998, -4, 1, -11, 231, 240, 266
6521742394, -4, -13, -998, -4, 1, -11, 231, 240, 266
6521842402, 2, -23, -994, -5, 1, -1, 231, 236, 262
6521842402, 2, -23, -994, -5, 1, -1, 231, 236, 262
6521942502, -6, -23, -1004, -3, -2, 6, 231, 238, 264
6521942502, -6, -23, -1004, -3, -2, 6, 231, 238, 264
6522042499, -6, -10, -1001, -5, 3, -2, 232, 227, 253
6522042499, -6, -10, -1001, -5, 3, -2, 232, 227, 253
6522142484, -2, -32, -996, -4, 1, -13, 233, 226, 251
6522142484, -2, -32, -996, -4, 1, -13, 233, 226, 251
6522242497, -1, -24, -996, -5, -2, -9, 233, 232, 256
6522242497, -1, -24, -996, -5, -2, -9, 233, 232, 256
6522342565, -2, -23, -997, -5, 3, -3, 233, 242, 268
6522342565, -2, -23, -997, -5, 3, -3, 233, 242, 268
6522442374, -6, -22, -1005, -6, 2, -2, 233, 241, 266
6522442374, -6, -22, -1005, -6, 2, -2, 233, 241, 266
6522542430, 1, -29, -1005, -2, 8, -7, 233, 241, 267
6522542430, 1, -29, -1005, -2, 8, -7, 233, 241, 267
6522642356, -2, -33, -996, -2, 0, -12, 233, 241, 266
6522642356, -2, -33, -996, -2, 0, -12, 233, 241, 266
6522742825, -1, -33, -995, -3, -1, -16, 233, 244, 269
6522742825, -1, -33, -995, -3, -1, -16, 233, 244, 269
6522842461, -4, -20, -999, -3, 2, -10, 234, 238, 262
6522842461, -4, -20, -999, -3, 2, -10, 234, 238, 262
6522942369, -4, -24, -1007, -3, 2, -1, 234, 234, 258
6522942369, -4, -24, -1007, -3, 2, -1, 234, 234, 258
6523042382, -6, -43, -1000, -1, 7, -3, 235, 239, 264
6523042382, -6, -43, -1000, -1, 7, -3, 235, 239, 264
6523142466, 0, -30, -999, -3, 3, -2, 235, 240, 264
6523142466, 0, -30, -999, -3, 3, -2, 235, 240, 264
6523242417, -2, -32, -1000, -1, 1, 0, 235, 243, 267
6523242417, -2, -32, -1000, -1, 1, 0, 235, 243, 267
6523342457, -5, -23, -1002, -2, 1, -1, 236, 243, 267
6523342457, -5, -23, -1002, -2, 1, -1, 236, 243, 267
6523442469, -5, -32, -999, -4, 3, -1, 236, 243, 267
6523442469, -5, -32, -999, -4, 3, -1, 236, 243, 267
6523542439, -6, -26, -1002, -3, 5, -2, 236, 244, 267
6523542439, -6, -26, -1002, -3, 5, -2, 236, 244, 267
6523642452, 2, -33, -991, -6, 2, 0, 237, 243, 266
6523642452, 2, -33, -991, -6, 2, 0, 237, 243, 266
6523742536, -4, -34, -1002, -2, 4, 0, 237, 243, 265
6523742536, -4, -34, -1002, -2, 4, 0, 237, 243, 265
6523842511, 1, -27, -998, -4, 2, 3, 237, 243, 266
6523842511, 1, -27, -998, -4, 2, 3, 237, 243, 266
6523942678, 0, -29, -999, -4, 0, 5, 237, 240, 262
6523942678, 0, -29, -999, -4, 0, 5, 237, 240, 262
6524042619, -6, -33, -999, -2, 3, 2, 238, 228, 250
6524042619, -6, -33, -999, -2, 3, 2, 238, 228, 250
6524142467, -5, -37, -1000, -3, 1, 0, 239, 230, 251
6524142467, -5, -37, -1000, -3, 1, 0, 239, 230, 251
6524242434, 3, -32, -1002, -4, 3, -3, 239, 238, 260
6524242434, 3, -32, -1002, -4, 3, -3, 239, 238, 260
6524342481, 0, -35, -1000, -3, 1, 1, 239, 245, 267
6524342481, 0, -35, -1000, -3, 1, 1, 239, 245, 267
6524442397, -1, -36, -1001, -4, 0, 2, 239, 245, 266
6524442397, -1, -36, -1001, -4, 0, 2, 239, 245, 266
6524542463, -4, -26, -1000, -4, 0, 1, 239, 244, 266
6524542463, -4, -26, -1000, -4, 0, 1, 239, 244, 266
6524642513, -2, -27, -998, -3, 4, 1, 239, 244, 265
6524642513, -2, -27, -998, -3, 4, 1, 239, 244, 265
6524742507, -5, -21, -999, -3, 4, 1, 239, 244, 265
6524742507, -5, -21, -999, -3, 4, 1, 239, 244, 265
6524842461, -2, -31, -1003, -3, 0, 2, 240, 243, 265
6524842461, -2, -31, -1003, -3, 0, 2, 240, 243, 265
6524942445, 2, -26, -1003, -2, 4, 3, 240, 239, 260
6524942445, 2, -26, -1003, -2, 4, 3, 240, 239, 260
6525042399, -1, -31, -1002, -2, 0, 1, 240, 241, 263
6525042399, -1, -31, -1002, -2, 0, 1, 240, 241, 263
6525142447, 1, -29, -1002, -1, 0, 3, 240, 244, 264
6525142447, 1, -29, -1002, -1, 0, 3, 240, 244, 264
6525242547, 0, -34, -1004, -2, -3, 4, 240, 246, 266
6525242547, 0, -34, -1004, -2, -3, 4, 240, 246, 266
6525342416, -4, -26, -998, -3, 1, 0, 241, 246, 266
6525342416, -4, -26, -998, -3, 1, 0, 241, 246, 266
6525442442, 1, -28, -1002, -3, 1, -3, 241, 246, 266
6525442442, 1, -28, -1002, -3, 1, -3, 241, 246, 266
6525542458, 2, -21, -998, -3, 0, 2, 242, 246, 265
6525542458, 2, -21, -998, -3, 0, 2, 242, 246, 265
6525642706, 0, -17, -1000, -2, 0, 3, 242, 245, 264
6525642706, 0, -17, -1000, -2, 0, 3, 242, 245, 264
6525742461, -2, -22, -996, -3, 0, 4, 242, 244, 263
6525742461, -2, -22, -996, -3, 0, 4, 242, 244, 263
6525847398, -3, -30, -996, -2, 3, 4, 243, 246, 265
6525847398, -3, -30, -996, -2, 3, 4, 243, 246, 265
6525942511, -10, -23, -1000, -3, 0, 0, 243, 240, 259
6525942511, -10, -23, -1000, -3, 0, 0, 243, 240, 259
6526042661, -2, -29, -1001, -3, 3, -1, 244, 232, 249
6526042661, -2, -29, -1001, -3, 3, -1, 244, 232, 249
6526142617, -3, -31, -998, -4, 0, 4, 245, 234, 251
6526142617, -3, -31, -998, -4, 0, 4, 245, 234, 251
6526242427, -4, -34, -1004, -2, 0, 4, 245, 239, 255
6526242427, -4, -34, -1004, -2, 0, 4, 245, 239, 255
6526342393, -6, -30, -1002, -2, 0, 0, 245, 248, 265
6526342393, -6, -30, -1002, -2, 0, 0, 245, 248, 265
6526442454, -4, -15, -1003, -2, 2, 2, 246, 248, 265
6526442454, -4, -15, -1003, -2, 2, 2, 246, 248, 265
6526542475, 0, -34, -999, -6, 2, 4, 246, 248, 264
6526542475, 0, -34, -999, -6, 2, 4, 246, 248, 264
6526647456, -6, -30, -1002, -3, 0, -2, 246, 248, 263
6526647456, -6, -30, -1002, -3, 0, -2, 246, 248, 263
6526742569, -1, -23, -997, -2, 4, -4, 247, 248, 262
6526742569, -1, -23, -997, -2, 4, -4, 247, 248, 262
6526842654, -5, -29, -997, -4, 0, -4, 248, 249, 263
6526842654, -5, -29, -997, -4, 0, -4, 248, 249, 263
6526942505, -2, -30, -1002, -4, 2, -5, 249, 237, 249
6526942505, -2, -30, -1002, -4, 2, -5, 249, 237, 249
6527042556, -3, -31, -998, -4, 2, -5, 250, 249, 261
6527042556, -3, -31, -998, -4, 2, -5, 250, 249, 261
6527142480, -2, -33, -1002, -4, 1, -8, 250, 251, 262
6527142480, -2, -33, -1002, -4, 1, -8, 250, 251, 262
6527242573, 0, -32, -999, -2, 1, -1, 251, 254, 264
6527242573, 0, -32, -999, -2, 1, -1, 251, 254, 264
6527342634, -4, -27, -998, -1, 2, -2, 251, 255, 264
6527342634, -4, -27, -998, -1, 2, -2, 251, 255, 264
6527442506, 1, -13, -995, -3, 1, 0, 252, 254, 262
6527442506, 1, -13, -995, -3, 1, 0, 252, 254, 262
6527542547, -10, -31, -996, -2, 1, -3, 253, 256, 263
6527542547, -10, -31, -996, -2, 1, -3, 253, 256, 263
6527642527, -8, -19, -995, -3, 5, -7, 253, 257, 263
6527642527, -8, -19, -995, -3, 5, -7, 253, 257, 263
6527742476, -5, -34, -997, -1, 5, -4, 254, 257, 261
6527742476, -5, -34, -997, -1, 5, -4, 254, 257, 261
6527842733, 0, -45, -997, -4, 0, -2, 255, 260, 264
6527842733, 0, -45, -997, -4, 0, -2, 255, 260, 264
6527942804, -6, -37, -994, -4, 3, -1, 256, 251, 253
6527942804, -6, -37, -994, -4, 3, -1, 256, 251, 253
6528042645, 1, -35, -997, -4, 3, -4, 257, 236, 237
6528042645, 1, -35, -997, -4, 3, -4, 257, 236, 237
6528142602, 0, -37, -1002, -3, 1, 0, 258, 245, 245
6528142602, 0, -37, -1002, -3, 1, 0, 258, 245, 245
6528242540, -2, -34, -1004, -2, 2, -3, 257, 249, 248
6528242540, -2, -34, -1004, -2, 2, -3, 257, 249, 248
6528342404, 0, -31, -1000, -3, 1, -1, 258, 263, 263
6528342404, 0, -31, -1000, -3, 1, -1, 258, 263, 263
6528442383, 0, -27, -999, -3, 0, -3, 258, 264, 262
6528442383, 0, -27, -999, -3, 0, -3, 258, 264, 262
6528542437, 0, -26, -1001, -3, 2, -2, 258, 264, 262
6528542437, 0, -26, -1001, -3, 2, -2, 258, 264, 262
6528642432, -3, -27, -999, -3, 1, -3, 258, 264, 262
6528642432, -3, -27, -999, -3, 1, -3, 258, 264, 262
6528742476, -5, -25, -996, -2, 0, -5, 259, 265, 262
6528742476, -5, -25, -996, -2, 0, -5, 259, 265, 262
6528847512, 2, -28, -997, -2, 3, -6, 260, 265, 262
6528847512, 2, -28, -997, -2, 3, -6, 260, 265, 262
6528942384, 0, -39, -1002, 0, 0, 4, 260, 263, 258
6528942384, 0, -39, -1002, 0, 0, 4, 260, 263, 258
6529042402, -6, -25, -1000, -3, 0, 3, 261, 266, 260
6529042402, -6, -25, -1000, -3, 0, 3, 261, 266, 260
6529142452, -2, -26, -1000, -2, 5, -1, 262, 268, 260
6529142452, -2, -26, -1000, -2, 5, -1, 262, 268, 260
6529242430, -3, -23, -1000, -4, 1, 0, 262, 270, 263
6529242430, -3, -23, -1000, -4, 1, 0, 262, 270, 263
6529342499, 3, -26, -1001, -2, 3, 0, 263, 271, 263
6529342499, 3, -26, -1001, -2, 3, 0, 263, 271, 263
6529442514, 0, -28, -1001, -2, 2, 3, 264, 272, 263
6529442514, 0, -28, -1001, -2, 2, 3, 264, 272, 263
6529542471, -1, -27, -1001, -2, 0, 5, 265, 274, 262
6529542471, -1, -27, -1001, -2, 0, 5, 265, 274, 262
6529642426, 0, -28, -1002, -1, 1, 10, 266, 275, 263
6529642426, 0, -28, -1002, -1, 1, 10, 266, 275, 263
6529742498, -3, -34, -996, -2, 2, 9, 266, 274, 261
6529742498, -3, -34, -996, -2, 2, 9, 266, 274, 261
6529842444, 0, -41, -1001, -3, 4, 5, 268, 278, 263
6529842444, 0, -41, -1001, -3, 4, 5, 268, 278, 263
6529942496, -4, -44, -997, -1, 3, 2, 269, 271, 255
6529942496, -4, -44, -997, -1, 3, 2, 269, 271, 255
6530042764, 1, -29, -995, -3, 2, 3, 271, 264, 244
6530042764, 1, -29, -995, -3, 2, 3, 271, 264, 244
6530142483, -4, -31, -996, -2, 3, 2, 272, 263, 243
6530142483, -4, -31, -996, -2, 3, 2, 272, 263, 243
6530242510, 1, -34, -999, 0, 0, 2, 272, 280, 260
6530242510, 1, -34, -999, 0, 0, 2, 272, 280, 260
6530342491, -1, -37, -1002, -2, 3, 1, 273, 282, 262
6530342491, -1, -37, -1002, -2, 3, 1, 273, 282, 262
6530442459, -5, -39, -999, -4, 2, 0, 274, 283, 261
6530442459, -5, -39, -999, -4, 2, 0, 274, 283, 261
6530542452, -4, -36, -1001, -2, 0, -1, 275, 285, 261
6530542452, -4, -36, -1001, -2, 0, -1, 275, 285, 261
6530642523, 4, -20, -1003, -3, 3, -4, 275, 284, 261
6530642523, 4, -20, -1003, -3, 3, -4, 275, 284, 261
6530742478, -4, -45, -995, -4, 1, -5, 276, 287, 261
6530742478, -4, -45, -995, -4, 1, -5, 276, 287, 261
6530842532, 1, -32, -989, -5, 4, -8, 277, 289, 262
6530842532, 1, -32, -989, -5, 4, -8, 277, 289, 262
6530942530, -4, -38, -998, -4, 3, -2, 278, 283, 255
6530942530, -4, -38, -998, -4, 3, -2, 278, 283, 255
6531042474, 0, -42, -1001, -4, 2, 0, 278, 291, 261
6531042474, 0, -42, -1001, -4, 2, 0, 278, 291, 261
6531142397, 0, -38, -1000, -4, 2, 0, 279, 291, 260
6531142397, 0, -38, -1000, -4, 2, 0, 279, 291, 260
6531242459, -1, -33, -997, -3, 0, -6, 280, 295, 264
6531242459, -1, -33, -997, -3, 0, -6, 280, 295, 264
6531342474, -1, -25, -996, -3, 2, -3, 281, 296, 263
6531342474, -1, -25, -996, -3, 2, -3, 281, 296, 263
6531442480, 0, -27, -997, -3, 1, 0, 281, 297, 264
6531442480, 0, -27, -997, -3, 1, 0, 281, 297, 264
6531542553, 2, -30, -998, -4, 1, 0, 282, 295, 261
6531542553, 2, -30, -998, -4, 1, 0, 282, 295, 261
6531642467, -2, -43, -1000, -4, 4, 0, 283, 298, 264
6531642467, -2, -43, -1000, -4, 4, 0, 283, 298, 264
6531742397, 0, -33, -996, -6, 1, -1, 283, 297, 261
6531742397, 0, -33, -996, -6, 1, -1, 283, 297, 261
6531842522, -2, -33, -998, -1, 4, -1, 284, 301, 265
6531842522, -2, -33, -998, -1, 4, -1, 284, 301, 265
6531942438, -1, -25, -1003, -2, -2, 6, 285, 287, 248
6531942438, -1, -25, -1003, -2, -2, 6, 285, 287, 248
6532042518, -1, -43, -1000, -1, 3, 5, 286, 285, 246
6532042518, -1, -43, -1000, -1, 3, 5, 286, 285, 246
6532142466, 0, -35, -1002, -3, 0, 6, 287, 289, 250
6532142466, 0, -35, -1002, -3, 0, 6, 287, 289, 250
6532242430, -8, -26, -997, -3, 2, 4, 287, 301, 261
6532242430, -8, -26, -997, -3, 2, 4, 287, 301, 261
6532342439, 2, -15, -1000, -3, 1, -4, 287, 307, 266
6532342439, 2, -15, -1000, -3, 1, -4, 287, 307, 266
6532442427, 0, -23, -1002, -4, 1, -3, 288, 307, 265
6532442427, 0, -23, -1002, -4, 1, -3, 288, 307, 265
6532542375, -6, -29, -1000, -1, 3, -4, 289, 309, 265
6532542375, -6, -29, -1000, -1, 3, -4, 289, 309, 265
6532642374, 0, -29, -999, -1, 3, -5, 289, 312, 267
6532642374, 0, -29, -999, -1, 3, -5, 289, 312, 267
6532742497, -1, -36, -997, -3, 0, -5, 290, 311, 264
6532742497, -1, -36, -997, -3, 0, -5, 290, 311, 264
6532842429, -4, -47, -997, -3, 4, -8, 291, 316, 268
6532842429, -4, -47, -997, -3, 4, -8, 291, 316, 268
6532947675, 0, -43, -1000, -4, 0, -6, 292, 313, 264
6532947675, 0, -43, -1000, -4, 0, -6, 292, 313, 264
6533042481, -1, -40, -998, -2, 3, -1, 293, 317, 266
6533042481, -1, -40, -998, -2, 3, -1, 293, 317, 266
6533142365, -3, -41, -997, -3, 1, -3, 294, 307, 254
6533142365, -3, -41, -997, -3, 1, -3, 294, 307, 254
6533242392, 0, -45, -1005, -3, 2, -4, 294, 323, 269
6533242392, 0, -45, -1005, -3, 2, -4, 294, 323, 269
6533342438, -3, -42, -1001, -2, 3, -5, 295, 326, 271
6533342438, -3, -42, -1001, -2, 3, -5, 295, 326, 271
6533442442, -1, -40, -1000, -2, 1, -4, 295, 327, 271
6533442442, -1, -40, -1000, -2, 1, -4, 295, 327, 271
6533542463, 3, -42, -1002, -2, 1, -2, 296, 327, 271
6533542463, 3, -42, -1002, -2, 1, -2, 296, 327, 271
6533642492, -2, -44, -996, -2, 0, -6, 296, 328, 272
6533642492, -2, -44, -996, -2, 0, -6, 296, 328, 272
6533742399, 1, -35, -1003, -2, -1, -9, 296, 328, 271
6533742399, 1, -35, -1003, -2, -1, -9, 296, 328, 271
6533842401, 2, -29, -1000, -4, 1, -3, 296, 331, 272
6533842401, 2, -29, -1000, -4, 1, -3, 296, 331, 272
6533942487, 0, -29, -996, -3, 1, -2, 297, 323, 262
6533942487, 0, -29, -996, -3, 1, -2, 297, 323, 262
6534042434, 0, -27, -997, -5, 1, -5, 298, 318, 256
6534042434, 0, -27, -997, -5, 1, -5, 298, 318, 256
6534142429, -3, -29, -1001, -3, 1, -7, 299, 324, 261
6534142429, -3, -29, -1001, -3, 1, -7, 299, 324, 261
6534242469, -1, -35, -1002, -3, 3, -8, 298, 336, 272
6534242469, -1, -35, -1002, -3, 3, -8, 298, 336, 272
6534342424, -1, -36, -997, -3, 4, -6, 299, 339, 275
6534342424, -1, -36, -997, -3, 4, -6, 299, 339, 275
6534442382, 0, -37, -999, -3, 2, 1, 299, 340, 275
6534442382, 0, -37, -999, -3, 2, 1, 299, 340, 275
6534542426, 1, -46, -1003, -1, 3, 0, 300, 341, 275
6534542426, 1, -46, -1003, -1, 3, 0, 300, 341, 275
6534642369, -2, -42, -1002, -2, 0, -3, 301, 342, 276
6534642369, -2, -42, -1002, -2, 0, -3, 301, 342, 276
6534742396, 0, -41, -1002, -1, -1, -5, 301, 341, 274
6534742396, 0, -41, -1002, -1, -1, -5, 301, 341, 274
6534842449, -3, -34, -998, -4, 1, -3, 302, 346, 277
6534842449, -3, -34, -998, -4, 1, -3, 302, 346, 277
6534942434, -3, -44, -1001, -3, 0, -4, 302, 340, 271
6534942434, -3, -44, -1001, -3, 0, -4, 302, 340, 271
6535042491, -1, -39, -1001, -3, 0, -1, 303, 347, 277
6535042491, -1, -39, -1001, -3, 0, -1, 303, 347, 277
6535142419, -5, -35, -997, -4, 4, -5, 304, 342, 270
6535142419, -5, -35, -997, -4, 4, -5, 304, 342, 270
6535242377, 4, -35, -1000, -5, 2, -1, 304, 350, 278
6535242377, 4, -35, -1000, -5, 2, -1, 304, 350, 278
6535342384, 0, -38, -1003, -3, 1, 3, 304, 352, 279
6535342384, 0, -38, -1003, -3, 1, 3, 304, 352, 279
6535442430, -1, -32, -1000, -3, 4, 0, 304, 353, 280
6535442430, -1, -32, -1000, -3, 4, 0, 304, 353, 280
6535542437, -1, -39, -1000, -3, 3, -1, 305, 354, 280
6535542437, -1, -39, -1000, -3, 3, -1, 305, 354, 280
6535642434, -1, -34, -998, -4, 0, -3, 305, 354, 280
6535642434, -1, -34, -998, -4, 0, -3, 305, 354, 280
6535742497, -1, -32, -1001, -4, 0, -2, 305, 353, 278
6535742497, -1, -32, -1001, -4, 0, -2, 305, 353, 278
6535842388, 0, -32, -1003, -5, 1, -3, 306, 357, 282
6535842388, 0, -32, -1003, -5, 1, -3, 306, 357, 282
6535942423, -5, -40, -1002, -4, 2, -4, 307, 351, 274
6535942423, -5, -40, -1002, -4, 2, -4, 307, 351, 274
6536042474, -2, -38, -1001, -3, 4, -3, 308, 348, 269
6536042474, -2, -38, -1001, -3, 4, -3, 308, 348, 269
6536142446, 0, -42, -993, -3, 5, -1, 308, 350, 270
6536142446, 0, -42, -993, -3, 5, -1, 308, 350, 270
6536242480, 1, -38, -995, -3, 3, -4, 308, 364, 284
6536242480, 1, -38, -995, -3, 3, -4, 308, 364, 284
6536342527, 2, -36, -996, -5, 1, -3, 308, 365, 285
6536342527, 2, -36, -996, -5, 1, -3, 308, 365, 285
6536442448, -2, -37, -1003, -5, 0, -2, 308, 366, 286
6536442448, -2, -37, -1003, -5, 0, -2, 308, 366, 286
6536542414, -3, -40, -1003, -4, 3, 0, 309, 367, 286
6536542414, -3, -40, -1003, -4, 3, 0, 309, 367, 286
6536642449, 0, -30, -997, -4, 3, -2, 309, 367, 286
6536642449, 0, -30, -997, -4, 3, -2, 309, 367, 286
6536742411, 0, -27, -1002, -5, 4, 0, 309, 367, 285
6536742411, 0, -27, -1002, -5, 4, 0, 309, 367, 285
6536842467, -2, -37, -995, -5, 3, -1, 309, 370, 287
6536842467, -2, -37, -995, -5, 3, -1, 309, 370, 287
6536942541, 0, -27, -999, -3, 1, 0, 310, 365, 282
6536942541, 0, -27, -999, -3, 1, 0, 310, 365, 282
6537042472, -1, -23, -994, -3, 6, 0, 311, 361, 277
6537042472, -1, -23, -994, -3, 6, 0, 311, 361, 277
6537142446, 0, -38, -994, -4, 4, -2, 311, 368, 283
6537142446, 0, -38, -994, -4, 4, -2, 311, 368, 283
6537242440, 2, -42, -1005, -3, 6, -10, 311, 377, 291
6537242440, 2, -42, -1005, -3, 6, -10, 311, 377, 291
6537342399, -3, -40, -1004, 0, 0, -2, 312, 378, 291
6537342399, -3, -40, -1004, 0, 0, -2, 312, 378, 291
6537442435, -7, -36, -1001, -2, 2, 1, 312, 378, 290
6537442435, -7, -36, -1001, -2, 2, 1, 312, 378, 290
6537542534, -2, -37, -993, -5, 5, -4, 312, 380, 292
6537542534, -2, -37, -993, -5, 5, -4, 312, 380, 292
6537642420, 5, -34, -996, -6, 0, -7, 313, 381, 293
6537642420, 5, -34, -996, -6, 0, -7, 313, 381, 293
6537742442, -5, -37, -999, -5, 0, 0, 313, 380, 291
6537742442, -5, -37, -999, -5, 0, 0, 313, 380, 291
6537842554, -3, -34, -1008, -3, 1, -1, 313, 385, 295
6537842554, -3, -34, -1008, -3, 1, -1, 313, 385, 295
6537942429, 1, -29, -998, -3, 2, 0, 314, 376, 285
6537942429, 1, -29, -998, -3, 2, 0, 314, 376, 285
6538042781, -1, -39, -999, -3, 2, -2, 315, 377, 285
6538042781, -1, -39, -999, -3, 2, -2, 315, 377, 285
6538142502, 1, -39, -1001, -3, 0, -2, 315, 380, 288
6538142502, 1, -39, -1001, -3, 0, -2, 315, 380, 288
6538242425, -3, -42, -1003, -1, 0, -1, 316, 366, 271
6538242425, -3, -42, -1003, -1, 0, -1, 316, 366, 271
6538342424, 2, -38, -998, -4, 2, -3, 315, 391, 298
6538342424, 2, -38, -998, -4, 2, -3, 315, 391, 298
6538442494, 0, -34, -995, -6, 1, -1, 316, 395, 300
6538442494, 0, -34, -995, -6, 1, -1, 316, 395, 300
6538542416, 2, -34, -1002, -5, 1, -2, 316, 395, 301
6538542416, 2, -34, -1002, -5, 1, -2, 316, 395, 301
6538642422, 4, -33, -996, -5, -1, -2, 317, 396, 301
6538642422, 4, -33, -996, -5, -1, -2, 317, 396, 301
6538742451, -4, -37, -1002, -5, -2, -2, 317, 396, 300
6538742451, -4, -37, -1002, -5, -2, -2, 317, 396, 300
6538842393, -1, -32, -1002, -6, 1, -3, 317, 399, 303
6538842393, -1, -32, -1002, -6, 1, -3, 317, 399, 303
6538942433, -1, -31, -998, -4, 0, 0, 318, 396, 299
6538942433, -1, -31, -998, -4, 0, 0, 318, 396, 299
6539042540, 1, -33, -998, -5, 0, 0, 318, 398, 301
6539042540, 1, -33, -998, -5, 0, 0, 318, 398, 301
6539142407, 4, -33, -999, -5, 0, 1, 319, 401, 303
6539142407, 4, -33, -999, -5, 0, 1, 319, 401, 303
6539242383, -6, -39, -1000, -2, 0, 5, 319, 406, 308
6539242383, -6, -39, -1000, -2, 0, 5, 319, 406, 308
6539342429, -1, -38, -998, -5, 1, -5, 320, 408, 309
6539342429, -1, -38, -998, -5, 1, -5, 320, 408, 309
6539442388, -2, -42, -1008, -4, 0, -7, 321, 409, 310
6539442388, -2, -42, -1008, -4, 0, -7, 321, 409, 310
6539542395, -4, -36, -1003, -4, -1, -1, 321, 411, 311
6539542395, -4, -36, -1003, -4, -1, -1, 321, 411, 311
6539642452, 2, -30, -995, -6, 1, -2, 321, 412, 312
6539642452, 2, -30, -995, -6, 1, -2, 321, 412, 312
6539742439, -2, -35, -1003, -7, 1, 1, 321, 414, 313
6539742439, -2, -35, -1003, -7, 1, 1, 321, 414, 313
6539842490, -3, -28, -994, -7, 1, 0, 322, 414, 313
6539842490, -3, -28, -994, -7, 1, 0, 322, 414, 313
6539942501, -1, -25, -995, -7, 1, -1, 323, 408, 307
6539942501, -1, -25, -995, -7, 1, -1, 323, 408, 307
6540042377, -6, -30, -996, -5, 2, -3, 324, 406, 304
6540042377, -6, -30, -996, -5, 2, -3, 324, 406, 304
6540142448, -2, -23, -998, -5, 3, -8, 325, 405, 303
6540142448, -2, -23, -998, -5, 3, -8, 325, 405, 303
6540242442, 1, -40, -997, -5, 2, -7, 325, 403, 299
6540242442, 1, -40, -997, -5, 2, -7, 325, 403, 299
6540342437, 5, -46, -997, -4, 1, -7, 325, 418, 314
6540342437, 5, -46, -997, -4, 1, -7, 325, 418, 314
6540442437, 2, -24, -999, -4, -1, 1, 325, 419, 315
6540442437, 2, -24, -999, -4, -1, 1, 325, 419, 315
6540542505, -3, -27, -1002, -3, 2, 1, 326, 420, 317
6540542505, -3, -27, -1002, -3, 2, 1, 326, 420, 317
6540642355, -5, -24, -997, -4, 4, 3, 326, 421, 317
6540642355, -5, -24, -997, -4, 4, 3, 326, 421, 317
6540742382, 0, -34, -995, -6, 3, 0, 326, 422, 319
6540742382, 0, -34, -995, -6, 3, 0, 326, 422, 319
6540842493, -1, -34, -1003, -5, 1, 2, 326, 423, 319
6540842493, -1, -34, -1003, -5, 1, 2, 326, 423, 319
6540942472, 0, -33, -1001, -4, 1, 0, 327, 421, 316
6540942472, 0, -33, -1001, -4, 1, 0, 327, 421, 316
6541042413, 0, -28, -995, -4, 0, 0, 327, 424, 320
6541042413, 0, -28, -995, -4, 0, 0, 327, 424, 320
6541142442, -4, -31, -1000, -6, 2, -1, 328, 429, 324
6541142442, -4, -31, -1000, -6, 2, -1, 328, 429, 324
6541242411, 0, -34, -999, -7, 2, 0, 328, 430, 325
6541242411, 0, -34, -999, -7, 2, 0, 328, 430, 325
6541342372, 2, -39, -1001, -7, 0, -2, 328, 431, 327
6541342372, 2, -39, -1001, -7, 0, -2, 328, 431, 327
6541442428, 0, -39, -999, -6, 3, 1, 329, 433, 328
6541442428, 0, -39, -999, -6, 3, 1, 329, 433, 328
6541542377, 0, -32, -998, -4, 0, 0, 329, 433, 328
6541542377, 0, -32, -998, -4, 0, 0, 329, 433, 328
6541642415, 4, -24, -997, -5, 1, -1, 329, 434, 329
6541642415, 4, -24, -997, -5, 1, -1, 329, 434, 329
6541742508, -5, -32, -1003, -3, 1, -1, 329, 435, 330
6541742508, -5, -32, -1003, -3, 1, -1, 329, 435, 330
6541842419, 0, -29, -1000, -2, 1, 0, 329, 435, 330
6541842419, 0, -29, -1000, -2, 1, 0, 329, 435, 330
6541942489, -2, -30, -1000, -3, 3, 2, 330, 432, 327
6541942489, -2, -30, -1000, -3, 3, 2, 330, 432, 327
6542042553, -3, -37, -1000, -3, 2, 0, 330, 422, 316
6542042553, -3, -37, -1000, -3, 2, 0, 330, 422, 316
6542142409, -2, -32, -997, -4, 1, -2, 331, 418, 312
6542142409, -2, -32, -997, -4, 1, -2, 331, 418, 312
6542242386, 0, -31, -1002, -5, 0, -4, 331, 433, 327
6542242386, 0, -31, -1002, -5, 0, -4, 331, 433, 327
6542342472, 2, -36, -999, -7, 1, 0, 330, 441, 336
6542342472, 2, -36, -999, -7, 1, 0, 330, 441, 336
6542442443, -2, -34, -1001, -5, 2, 0, 331, 441, 336
6542442443, -2, -34, -1001, -5, 2, 0, 331, 441, 336
6542542457, -1, -32, -1007, -4, 0, 0, 331, 442, 338
6542542457, -1, -32, -1007, -4, 0, 0, 331, 442, 338
6542642483, -1, -34, -998, -6, 3, 0, 331, 443, 338
6542642483, -1, -34, -998, -6, 3, 0, 331, 443, 338
6542742400, -1, -27, -1001, -4, 1, -1, 331, 443, 339
6542742400, -1, -27, -1001, -4, 1, -1, 331, 443, 339
6542842417, 1, -28, -1001, -5, 2, -3, 331, 444, 340
6542842417, 1, -28, -1001, -5, 2, -3, 331, 444, 340
6542942449, 1, -25, -1000, -4, 2, -2, 331, 443, 339
6542942449, 1, -25, -1000, -4, 2, -2, 331, 443, 339
6543042465, 0, -26, -994, -5, 2, -1, 331, 442, 337
6543042465, 0, -26, -994, -5, 2, -1, 331, 442, 337
6543142795, -1, -30, -1005, -5, 1, 0, 331, 446, 341
6543142795, -1, -30, -1005, -5, 1, 0, 331, 446, 341
6543242823, -3, -29, -1004, -3, 2, 0, 331, 454, 349
6543242823, -3, -29, -1004, -3, 2, 0, 331, 454, 349
6543342424, -1, -24, -998, -5, 4, -1, 332, 445, 340
6543342424, -1, -24, -998, -5, 4, -1, 332, 445, 340
6543442393, 0, -23, -993, -5, 3, 0, 332, 445, 339
6543442393, 0, -23, -993, -5, 3, 0, 332, 445, 339
6543542420, -2, -25, -1002, -6, 0, 0, 332, 452, 347
6543542420, -2, -25, -1002, -6, 0, 0, 332, 452, 347
6543642367, 1, -40, -1002, -4, 0, 0, 332, 452, 348
6543642367, 1, -40, -1002, -4, 0, 0, 332, 452, 348
6543742435, -1, -34, -1002, -5, 2, 2, 332, 452, 349
6543742435, -1, -34, -1002, -5, 2, 2, 332, 452, 349
6543842448, -1, -33, -1002, -5, 0, -1, 333, 454, 350
6543842448, -1, -33, -1002, -5, 0, -1, 333, 454, 350
6543942487, -3, -27, -1005, -4, 0, -4, 333, 451, 347
6543942487, -3, -27, -1005, -4, 0, -4, 333, 451, 347
6544042388, -1, -29, -1000, -2, 4, -3, 333, 442, 338
6544042388, -1, -29, -1000, -2, 4, -3, 333, 442, 338
6544142474, 0, -26, -997, -3, 3, -2, 333, 448, 343
6544142474, 0, -26, -997, -3, 3, -2, 333, 448, 343
6544242380, -6, -31, -1004, -2, 2, -2, 333, 447, 342
6544242380, -6, -31, -1004, -2, 2, -2, 333, 447, 342
6544342386, -2, -19, -1004, -6, 3, 0, 333, 459, 356
6544342386, -2, -19, -1004, -6, 3, 0, 333, 459, 356
6544442491, -3, -35, -995, -4, 6, -1, 333, 460, 357
6544442491, -3, -35, -995, -4, 6, -1, 333, 460, 357
6544542432, 6, -34, -998, -6, 0, -3, 333, 459, 356
6544542432, 6, -34, -998, -6, 0, -3, 333, 459, 356
6544642420, 1, -30, -1000, -4, 0, -7, 333, 460, 358
6544642420, 1, -30, -1000, -4, 0, -7, 333, 460, 358
6544742436, 2, -23, -1002, -5, 1, -3, 332, 461, 358
6544742436, 2, -23, -1002, -5, 1, -3, 332, 461, 358
6544842380, -5, -34, -1004, -4, 0, 1, 332, 462, 360
6544842380, -5, -34, -1004, -4, 0, 1, 332, 462, 360
6544942465, -1, -26, -1008, -4, 0, -1, 333, 461, 359
6544942465, -1, -26, -1008, -4, 0, -1, 333, 461, 359
6545042428, 0, -32, -1003, -1, 2, 2, 333, 460, 358
6545042428, 0, -32, -1003, -1, 2, 2, 333, 460, 358
6545142472, -1, -22, -1003, -2, 2, 0, 333, 463, 362
6545142472, -1, -22, -1003, -2, 2, 0, 333, 463, 362
6545242508, 1, -32, -997, -3, 1, 0, 333, 466, 365
6545242508, 1, -32, -997, -3, 1, 0, 333, 466, 365
6545342494, -2, -28, -996, -4, -1, 0, 333, 466, 365
6545342494, -2, -28, -996, -4, -1, 0, 333, 466, 365
6545442394, -3, -34, -1000, -6, 0, -1, 333, 467, 366
6545442394, -3, -34, -1000, -6, 0, -1, 333, 467, 366
6545542419, -7, -26, -1008, -4, 1, -1, 333, 468, 368
6545542419, -7, -26, -1008, -4, 1, -1, 333, 468, 368
6545642460, -3, -29, -1004, -6, 4, -2, 333, 468, 368
6545642460, -3, -29, -1004, -6, 4, -2, 333, 468, 368
6545742412, 1, -28, -1001, -5, 0, 0, 333, 469, 370
6545742412, 1, -28, -1001, -5, 0, 0, 333, 469, 370
6545842452, 2, -33, -999, -5, 2, 0, 333, 467, 368
6545842452, 2, -33, -999, -5, 2, 0, 333, 467, 368
6545942562, 1, -31, -995, -5, 1, -1, 333, 468, 369
6545942562, 1, -31, -995, -5, 1, -1, 333, 468, 369
6546042507, -1, -30, -998, -4, 3, -2, 333, 457, 358
6546042507, -1, -30, -998, -4, 3, -2, 333, 457, 358
6546142447, 0, -25, -998, -4, 2, -1, 333, 458, 359
6546142447, 0, -25, -998, -4, 2, -1, 333, 458, 359
6546242474, 0, -28, -1001, -3, 2, 1, 333, 465, 366
6546242474, 0, -28, -1001, -3, 2, 1, 333, 465, 366
6546342416, 2, -24, -1002, -4, 3, 0, 332, 473, 375
6546342416, 2, -24, -1002, -4, 3, 0, 332, 473, 375
6546442480, 0, -28, -1000, -3, 0, 1, 332, 473, 376
6546442480, 0, -28, -1000, -3, 0, 1, 332, 473, 376
6546542578, -2, -25, -1004, -4, 0, 0, 332, 473, 376
6546542578, -2, -25, -1004, -4, 0, 0, 332, 473, 376
6546642492, 0, -25, -1002, -5, 2, 0, 332, 473, 376
6546642492, 0, -25, -1002, -5, 2, 0, 332, 473, 376
6546742487, 0, -22, -998, -4, 2, 1, 332, 475, 378
6546742487, 0, -22, -998, -4, 2, 1, 332, 475, 378
6546842471, -2, -27, -999, -4, 0, 0, 332, 472, 376
6546842471, -2, -27, -999, -4, 0, 0, 332, 472, 376
6546942486, 0, -23, -1003, -4, 2, 0, 331, 475, 379
6546942486, 0, -23, -1003, -4, 2, 0, 331, 475, 379
6547042389, -2, -29, -1002, -2, 1, 2, 331, 470, 375
6547042389, -2, -29, -1002, -2, 1, 2, 331, 470, 375
6547142480, -3, -27, -1005, -3, 2, -1, 332, 465, 370
6547142480, -3, -27, -1005, -3, 2, -1, 332, 465, 370
6547242414, 1, -29, -999, -3, 1, 0, 331, 476, 382
6547242414, 1, -29, -999, -3, 1, 0, 331, 476, 382
6547342421, 1, -30, -999, -4, 1, -1, 331, 478, 384
6547342421, 1, -30, -999, -4, 1, -1, 331, 478, 384
6547442572, -1, -32, -1001, -3, 0, -2, 330, 478, 384
6547442572, -1, -32, -1001, -3, 0, -2, 330, 478, 384
6547542379, -5, -20, -1002, -4, 1, -3, 330, 478, 386
6547542379, -5, -20, -1002, -4, 1, -3, 330, 478, 386
6547642384, -4, -23, -997, -3, 6, -4, 329, 479, 386
6547642384, -4, -23, -997, -3, 6, -4, 329, 479, 386
6547742432, 1, -27, -995, -4, 5, -4, 328, 481, 389
6547742432, 1, -27, -995, -4, 5, -4, 328, 481, 389
6547842438, 3, -31, -998, -4, 0, -4, 328, 479, 387
6547842438, 3, -31, -998, -4, 0, -4, 328, 479, 387
6547942505, -3, -29, -1006, -2, 0, -1, 327, 480, 388
6547942505, -3, -29, -1006, -2, 0, -1, 327, 480, 388
6548042547, -1, -29, -1003, -4, 2, -2, 328, 468, 375
6548042547, -1, -29, -1003, -4, 2, -2, 328, 468, 375
6548142509, 0, -25, -998, -3, 2, -1, 327, 471, 379
6548142509, 0, -25, -998, -3, 2, -1, 327, 471, 379
6548242388, -3, -30, -997, -4, 2, -3, 327, 468, 375
6548242388, -3, -30, -997, -4, 2, -3, 327, 468, 375
6548347806, 1, -27, -1003, -3, 0, -5, 326, 483, 391
6548347806, 1, -27, -1003, -3, 0, -5, 326, 483, 391
6548442700, 0, -28, -1001, -3, 1, -2, 325, 487, 396
6548442700, 0, -28, -1001, -3, 1, -2, 325, 487, 396
6548542420, -4, -30, -997, -4, 0, 2, 324, 480, 389
6548542420, -4, -30, -997, -4, 0, 2, 324, 480, 389
6548642444, 0, -30, -998, -4, 1, 1, 324, 483, 393
6548642444, 0, -30, -998, -4, 1, 1, 324, 483, 393
6548742434, -1, -26, -1000, -3, 0, -2, 323, 487, 397
6548742434, -1, -26, -1000, -3, 0, -2, 323, 487, 397
6548842383, -1, -19, -999, -3, 1, 2, 323, 485, 397
6548842383, -1, -19, -999, -3, 1, 2, 323, 485, 397
6548942443, -6, -26, -998, -3, 2, -1, 322, 486, 398
6548942443, -6, -26, -998, -3, 2, -1, 322, 486, 398
6549042375, 4, -24, -997, -4, -1, -2, 322, 484, 396
6549042375, 4, -24, -997, -4, -1, -2, 322, 484, 396
6549142407, -5, -31, -1004, -3, 4, -8, 321, 487, 400
6549142407, -5, -31, -1004, -3, 4, -8, 321, 487, 400
6549242478, 2, -15, -995, -4, 0, -5, 320, 486, 398
6549242478, 2, -15, -995, -4, 0, -5, 320, 486, 398
6549342434, -3, -32, -996, -4, 4, -8, 320, 489, 402
6549342434, -3, -32, -996, -4, 4, -8, 320, 489, 402
6549442431, -5, -12, -999, -4, -1, 0, 319, 491, 403
6549442431, -5, -12, -999, -4, -1, 0, 319, 491, 403
6549542442, 0, -23, -999, -4, 6, -2, 318, 491, 403
6549542442, 0, -23, -999, -4, 6, -2, 318, 491, 403
6549642367, -2, -24, -1001, -3, 2, -2, 317, 491, 404
6549642367, -2, -24, -1001, -3, 2, -2, 317, 491, 404
6549742387, 1, -14, -997, -3, 0, -6, 316, 493, 406
6549742387, 1, -14, -997, -3, 0, -6, 316, 493, 406
6549842432, -1, -23, -1003, -3, -2, -2, 315, 492, 406
6549842432, -1, -23, -1003, -3, -2, -2, 315, 492, 406
6549942499, -4, -32, -1004, -2, 0, 0, 314, 493, 408
6549942499, -4, -32, -1004, -2, 0, 0, 314, 493, 408
6550042563, -1, -34, -997, -4, 2, -4, 313, 489, 403
6550042563, -1, -34, -997, -4, 2, -4, 313, 489, 403
6550142484, 0, -35, -995, -3, 2, -1, 312, 484, 397
6550142484, 0, -35, -995, -3, 2, -1, 312, 484, 397
6550242467, -1, -36, -997, -5, 4, -4, 311, 497, 411
6550242467, -1, -36, -997, -5, 4, -4, 311, 497, 411
6550342455, -1, -40, -998, -4, 3, -8, 310, 488, 401
6550342455, -1, -40, -998, -4, 3, -8, 310, 488, 401
6550442458, -3, -31, -1000, -2, 1, -11, 309, 493, 407
6550442458, -3, -31, -1000, -2, 1, -11, 309, 493, 407
6550542414, -7, -39, -1000, -3, 3, -14, 308, 500, 414
6550542414, -7, -39, -1000, -3, 3, -14, 308, 500, 414
6550642432, -1, -30, -1006, -2, 1, -15, 307, 500, 414
6550642432, -1, -30, -1006, -2, 1, -15, 307, 500, 414
6550742534, 0, -29, -1002, -2, 1, -8, 305, 502, 416
6550742534, 0, -29, -1002, -2, 1, -8, 305, 502, 416
6550842441, 0, -29, -1002, -3, 0, -4, 305, 499, 412
6550842441, 0, -29, -1002, -3, 0, -4, 305, 499, 412
6550942439, -1, -28, -1003, -2, 0, -3, 304, 502, 416
6550942439, -1, -28, -1003, -2, 0, -3, 304, 502, 416
6551042453, 2, -27, -1000, -5, 0, -6, 303, 498, 411
6551042453, 2, -27, -1000, -5, 0, -6, 303, 498, 411
6551142450, 0, -33, -1004, -1, 0, -9, 302, 500, 413
6551142450, 0, -33, -1004, -1, 0, -9, 302, 500, 413
6551242445, -3, -21, -1002, -2, 0, -15, 301, 502, 415
6551242445, -3, -21, -1002, -2, 0, -15, 301, 502, 415
6551342479, 3, -17, -1000, -2, 1, -9, 300, 506, 418
6551342479, 3, -17, -1000, -2, 1, -9, 300, 506, 418
6551442428, -5, -29, -995, -4, 3, -9, 299, 506, 419
6551442428, -5, -29, -995, -4, 3, -9, 299, 506, 419
6551542430, 2, -32, -998, -2, 3, -15, 298, 507, 420
6551542430, 2, -32, -998, -2, 3, -15, 298, 507, 420
6551642444, 0, -27, -1000, -1, 0, -10, 296, 507, 420
6551642444, 0, -27, -1000, -1, 0, -10, 296, 507, 420
6551742406, 1, -30, -1000, -1, 0, -8, 295, 507, 419
6551742406, 1, -30, -1000, -1, 0, -8, 295, 507, 419
6551842427, -2, -34, -1000, -3, 0, -9, 294, 508, 421
6551842427, -2, -34, -1000, -3, 0, -9, 294, 508, 421
6551942546, -6, -29, -1000, -4, 2, -9, 293, 510, 423
6551942546, -6, -29, -1000, -4, 2, -9, 293, 510, 423
6552042624, 3, -21, -995, -5, 2, -7, 293, 506, 418
6552042624, 3, -21, -995, -5, 2, -7, 293, 506, 418
6552142678, 2, -23, -995, -6, 2, -2, 292, 498, 409
6552142678, 2, -23, -995, -6, 2, -2, 292, 498, 409
6552242681, -1, -21, -998, -4, 0, -3, 291, 496, 407
6552242681, -1, -21, -998, -4, 0, -3, 291, 496, 407
6552342442, -2, -35, -1001, -5, 5, -4, 291, 504, 416
6552342442, -2, -35, -1001, -5, 5, -4, 291, 504, 416
6552442466, -4, -35, -1002, -4, 3, -6, 289, 514, 426
6552442466, -4, -35, -1002, -4, 3, -6, 289, 514, 426
6552542532, 1, -28, -1000, -2, 2, -4, 288, 513, 426
6552542532, 1, -28, -1000, -2, 2, -4, 288, 513, 426
6552642554, 0, -20, -1004, -3, 0, -4, 287, 515, 428
6552642554, 0, -20, -1004, -3, 0, -4, 287, 515, 428
6552742564, 1, -33, -1000, -4, 2, -2, 286, 515, 429
6552742564, 1, -33, -1000, -4, 2, -2, 286, 515, 429
6552842573, 2, -34, -1005, -3, 2, -1, 285, 516, 429
6552842573, 2, -34, -1005, -3, 2, -1, 285, 516, 429
6552942508, -5, -26, -1005, -2, 0, 2, 284, 517, 431
6552942508, -5, -26, -1005, -2, 0, 2, 284, 517, 431
6553042473, -1, -28, -1007, -1, 2, 0, 283, 514, 428
6553042473, -1, -28, -1007, -1, 2, 0, 283, 514, 428
6553142607, -5, -30, -996, -2, 2, -1, 283, 518, 432
6553142607, -5, -30, -996, -2, 2, -1, 283, 518, 432
6553242512, 2, -31, -999, -4, 3, 0, 282, 514, 428
6553242512, 2, -31, -999, -4, 3, 0, 282, 514, 428
6553342537, 0, -34, -1005, -3, 2, -2, 281, 520, 435
6553342537, 0, -34, -1005, -3, 2, -2, 281, 520, 435
6553442637, -2, -33, -1004, -3, 0, -3, 280, 521, 435
6553442637, -2, -33, -1004, -3, 0, -3, 280, 521, 435
6553542984, 0, -28, -995, -2, 0, -4, 279, 521, 436
6553542984, 0, -28, -995, -2, 0, -4, 279, 521, 436
6553642450, -2, -24, -996, -4, 2, -3, 278, 519, 433
6553642450, -2, -24, -996, -4, 2, -3, 278, 519, 433
6553742459, 0, -28, -995, -4, 2, -3, 277, 516, 431
6553742459, 0, -28, -995, -4, 2, -3, 277, 516, 431
6553842397, -1, -15, -994, -4, 0, -4, 276, 523, 439
6553842397, -1, -15, -994, -4, 0, -4, 276, 523, 439
6553942406, 4, -28, -994, -5, 0, 0, 275, 524, 441
6553942406, 4, -28, -994, -5, 0, 0, 275, 524, 441
6554042563, 2, -25, -998, -6, 2, 4, 274, 518, 434
6554042563, 2, -25, -998, -6, 2, 4, 274, 518, 434
6554142410, 4, -27, -1000, -6, 4, 9, 274, 511, 428
6554142410, 4, -27, -1000, -6, 4, 9, 274, 511, 428
6554242536, -5, -36, -997, -4, 0, 1, 273, 526, 445
6554242536, -5, -36, -997, -4, 0, 1, 273, 526, 445
6554342502, 0, -25, -1000, -5, 1, -5, 273, 514, 432
6554342502, 0, -25, -1000, -5, 1, -5, 273, 514, 432
6554442421, 0, -23, -1005, -6, 4, -1, 272, 523, 443
6554442421, 0, -23, -1005, -6, 4, -1, 272, 523, 443
6554542442, -2, -30, -1004, -4, 2, 8, 271, 528, 448
6554542442, -2, -30, -1004, -4, 2, 8, 271, 528, 448
6554642422, -6, -37, -998, -5, 3, 6, 270, 529, 450
6554642422, -6, -37, -998, -5, 3, 6, 270, 529, 450
6554742472, 3, -19, -1000, -8, 5, 5, 269, 530, 451
6554742472, 3, -19, -1000, -8, 5, 5, 269, 530, 451
6554842463, -3, -24, -1001, -5, 2, 1, 269, 528, 450
6554842463, -3, -24, -1001, -5, 2, 1, 269, 528, 450
6554942590, 1, -20, -998, -3, 0, 0, 268, 531, 453
6554942590, 1, -20, -998, -3, 0, 0, 268, 531, 453
6555042432, 0, -17, -995, -6, -1, 0, 268, 529, 452
6555042432, 0, -17, -995, -6, -1, 0, 268, 529, 452
6555142433, -2, -32, -997, -6, 3, -4, 267, 529, 452
6555142433, -2, -32, -997, -6, 3, -4, 267, 529, 452
6555242493, -2, -26, -1002, -3, 1, -1, 266, 530, 454
6555242493, -2, -26, -1002, -3, 1, -1, 266, 530, 454
6555342442, 1, -35, -1003, -4, 2, 0, 265, 535, 460
6555342442, 1, -35, -1003, -4, 2, 0, 265, 535, 460
6555442522, -1, -34, -1001, -3, 0, 3, 264, 536, 462
6555442522, -1, -34, -1001, -3, 0, 3, 264, 536, 462
6555542613, -4, -34, -1002, -4, 2, -2, 263, 536, 463
6555542613, -4, -34, -1002, -4, 2, -2, 263, 536, 463
6555642522, 2, -29, -997, -2, -3, 0, 262, 537, 465
6555642522, 2, -29, -997, -2, -3, 0, 262, 537, 465
6555742446, -5, -31, -1000, -3, 0, -4, 261, 538, 467
6555742446, -5, -31, -1000, -3, 0, -4, 261, 538, 467
6555842530, -3, -28, -995, -5, 0, -12, 261, 539, 468
6555842530, -3, -28, -995, -5, 0, -12, 261, 539, 468
6555942459, -1, -24, -1001, -3, 4, -12, 260, 540, 470
6555942459, -1, -24, -1001, -3, 4, -12, 260, 540, 470
6556042530, -2, -23, -995, -4, 0, -13, 259, 536, 464
6556042530, -2, -23, -995, -4, 0, -13, 259, 536, 464
6556142641, -1, -13, -992, -4, 1, -8, 259, 530, 458
6556142641, -1, -13, -992, -4, 1, -8, 259, 530, 458
6556242522, -7, -23, -996, -5, 1, -6, 257, 544, 475
6556242522, -7, -23, -996, -5, 1, -6, 257, 544, 475
6556342592, -5, -32, -998, -7, 1, -7, 256, 537, 468
6556342592, -5, -32, -998, -7, 1, -7, 256, 537, 468
6556442532, -2, -34, -1002, -8, 1, -9, 255, 537, 469
6556442532, -2, -34, -1002, -8, 1, -9, 255, 537, 469
6556542416, -3, -38, -1006, -6, 0, -6, 254, 547, 481
6556542416, -3, -38, -1006, -6, 0, -6, 254, 547, 481
6556642424, 2, -35, -996, -6, 1, -6, 253, 548, 483
6556642424, 2, -35, -996, -6, 1, -6, 253, 548, 483
6556742619, -3, -34, -999, -6, 0, -5, 252, 549, 485
6556742619, -3, -34, -999, -6, 0, -5, 252, 549, 485
6556842459, -1, -33, -1001, -6, 0, -5, 251, 549, 486
6556842459, -1, -33, -1001, -6, 0, -5, 251, 549, 486
6556942571, -2, -34, -1008, -5, 1, -5, 250, 550, 489
6556942571, -2, -34, -1008, -5, 1, -5, 250, 550, 489
6557042647, -3, -33, -1003, -4, 1, -7, 250, 548, 487
6557042647, -3, -33, -1003, -4, 1, -7, 250, 548, 487
6557142479, 1, -28, -998, -6, 4, -4, 249, 551, 491
6557142479, 1, -28, -998, -6, 4, -4, 249, 551, 491
6557242492, 1, -21, -997, -5, 1, 0, 249, 540, 480
6557242492, 1, -21, -997, -5, 1, 0, 249, 540, 480
6557342480, 1, -23, -1003, -7, 1, -4, 248, 551, 493
6557342480, 1, -23, -1003, -7, 1, -4, 248, 551, 493
6557442456, -5, -24, -1004, -6, 2, 0, 248, 553, 495
6557442456, -5, -24, -1004, -6, 2, 0, 248, 553, 495
6557542480, 0, -24, -1000, -7, 4, -1, 247, 553, 497
6557542480, 0, -24, -1000, -7, 4, -1, 247, 553, 497
6557642657, 2, -24, -1002, -6, 3, 1, 247, 552, 497
6557642657, 2, -24, -1002, -6, 3, 1, 247, 552, 497
6557742520, 7, -31, -1005, -3, 4, 1, 246, 554, 501
6557742520, 7, -31, -1005, -3, 4, 1, 246, 554, 501
6557842392, 0, -34, -1000, -1, -1, 0, 245, 552, 500
6557842392, 0, -34, -1000, -1, -1, 0, 245, 552, 500
6557942443, -7, -31, -1002, -1, -2, -3, 245, 555, 504
6557942443, -7, -31, -1002, -1, -2, -3, 245, 555, 504
6558042443, -9, -25, -999, -1, 1, -10, 244, 547, 498
6558042443, -9, -25, -999, -1, 1, -10, 244, 547, 498
6558142418, -4, -29, -995, -6, 6, -8, 244, 544, 497
6558142418, -4, -29, -995, -6, 6, -8, 244, 544, 497
6558242460, 0, -23, -996, -6, 6, 4, 242, 548, 502
6558242460, 0, -23, -996, -6, 6, 4, 242, 548, 502
6558342504, -3, -26, -1000, -6, 4, -1, 243, 549, 504
6558342504, -3, -26, -1000, -6, 4, -1, 243, 549, 504
6558442402, -3, -25, -1000, -5, 0, -6, 242, 548, 504
6558442402, -3, -25, -1000, -5, 0, -6, 242, 548, 504
6558542464, -2, -30, -1002, -4, 1, -2, 241, 558, 517
6558542464, -2, -30, -1002, -4, 1, -2, 241, 558, 517
6558642713, -7, -22, -998, -4, 3, -1, 240, 560, 521
6558642713, -7, -22, -998, -4, 3, -1, 240, 560, 521
6558742688, 0, -17, -995, -4, 4, -4, 239, 561, 522
6558742688, 0, -17, -995, -4, 4, -4, 239, 561, 522
6558842485, -1, -23, -995, -6, 3, 0, 239, 552, 515
6558842485, -1, -23, -995, -6, 3, 0, 239, 552, 515
6558942535, -2, -30, -1004, -4, 0, -3, 239, 557, 522
6558942535, -2, -30, -1004, -4, 0, -3, 239, 557, 522
6559042531, -5, -13, -1003, -3, 0, -3, 238, 554, 521
6559042531, -5, -13, -1003, -3, 0, -3, 238, 554, 521
6559147708, -3, -31, -996, -6, 7, 0, 237, 559, 527
6559147708, -3, -31, -996, -6, 7, 0, 237, 559, 527
6559242409, -3, -3, -997, -8, 2, 0, 237, 559, 530
6559242409, -3, -3, -997, -8, 2, 0, 237, 559, 530
6559342413, 0, -20, -998, -6, 7, -7, 236, 561, 535
6559342413, 0, -20, -998, -6, 7, -7, 236, 561, 535
6559442465, -1, -27, -1005, -4, 0, -4, 235, 562, 539
6559442465, -1, -27, -1005, -4, 0, -4, 235, 562, 539
6559542471, -1, -27, -997, -4, 0, -2, 234, 561, 542
6559542471, -1, -27, -997, -4, 0, -2, 234, 561, 542
6559642449, 0, -25, -1000, -5, -1, -2, 233, 561, 545
6559642449, 0, -25, -1000, -5, -1, -2, 233, 561, 545
6559742533, -2, -28, -1001, -6, 0, -2, 232, 562, 551
6559742533, -2, -28, -1001, -6, 0, -2, 232, 562, 551
6559842381, -1, -32, -1001, -5, -1, -2, 231, 561, 553
6559842381, -1, -32, -1001, -5, -1, -2, 231, 561, 553
6559942484, -9, -31, -1001, -7, -2, -3, 231, 560, 555
6559942484, -9, -31, -1001, -7, -2, -3, 231, 560, 555
6560042531, -5, -25, -1002, -7, 2, -2, 231, 547, 546
6560042531, -5, -25, -1002, -7, 2, -2, 231, 547, 546
6560142476, -7, -30, -1000, -5, 3, 0, 230, 549, 549
6560142476, -7, -30, -1000, -5, 3, 0, 230, 549, 549
6560242528, 0, -25, -1003, -4, 3, -1, 230, 557, 561
6560242528, 0, -25, -1003, -4, 3, -1, 230, 557, 561
6560342549, -2, -26, -1003, -2, 1, -2, 228, 565, 573
6560342549, -2, -26, -1003, -2, 1, -2, 228, 565, 573
6560442462, -3, -23, -998, -3, 0, -2, 228, 566, 576
6560442462, -3, -23, -998, -3, 0, -2, 228, 566, 576
6560542470, -4, -16, -1000, -6, 3, 0, 227, 565, 579
6560542470, -4, -16, -1000, -6, 3, 0, 227, 565, 579
6560642442, 0, -24, -1001, -6, 0, 3, 226, 563, 580
6560642442, 0, -24, -1001, -6, 0, 3, 226, 563, 580
6560742433, -2, -38, -1004, -4, 0, -2, 226, 564, 585
6560742433, -2, -38, -1004, -4, 0, -2, 226, 564, 585
6560842382, 0, -29, -1008, -4, -1, -6, 225, 562, 587
6560842382, 0, -29, -1008, -4, -1, -6, 225, 562, 587
6560942518, -2, -29, -1000, -6, 1, 1, 225, 561, 589
6560942518, -2, -29, -1000, -6, 1, 1, 225, 561, 589
6561042422, 0, -22, -997, -5, 3, 5, 224, 558, 589
6561042422, 0, -22, -997, -5, 3, 5, 224, 558, 589
6561142435, 1, -23, -999, -5, 0, 4, 224, 555, 590
6561142435, 1, -23, -999, -5, 0, 4, 224, 555, 590
6561242433, -3, -21, -1002, -6, 0, 3, 223, 561, 599
6561242433, -3, -21, -1002, -6, 0, 3, 223, 561, 599
6561342375, -4, -26, -1004, -5, 0, 1, 223, 562, 604
6561342375, -4, -26, -1004, -5, 0, 1, 223, 562, 604
6561442383, -2, -23, -1001, -5, 0, 6, 223, 562, 607
6561442383, -2, -23, -1001, -5, 0, 6, 223, 562, 607
6561542492, -8, -17, -996, -5, 0, 15, 223, 561, 610
6561542492, -8, -17, -996, -5, 0, 15, 223, 561, 610
6561642409, -5, -16, -999, -6, 3, 9, 222, 559, 613
6561642409, -5, -16, -999, -6, 3, 9, 222, 559, 613
6561742449, -3, -19, -999, -4, 5, 4, 222, 559, 616
6561742449, -3, -19, -999, -4, 5, 4, 222, 559, 616
6561842470, 3, -23, -996, -3, 2, 4, 222, 554, 616
6561842470, 3, -23, -996, -3, 2, 4, 222, 554, 616
6561942419, 0, -26, -1000, -4, 0, 5, 222, 552, 618
6561942419, 0, -26, -1000, -4, 0, 5, 222, 552, 618
6562042389, -8, -26, -1003, -2, -2, 0, 222, 542, 611
6562042389, -8, -26, -1003, -2, -2, 0, 222, 542, 611
6562142552, -4, -22, -1000, -3, 0, -4, 221, 544, 619
6562142552, -4, -22, -1000, -3, 0, -4, 221, 544, 619
6562242515, -1, -18, -999, -4, 0, -1, 221, 552, 630
6562242515, -1, -18, -999, -4, 0, -1, 221, 552, 630
6562342420, -2, -22, -999, -4, 1, 5, 220, 546, 629
6562342420, -2, -22, -999, -4, 1, 5, 220, 546, 629
6562442466, -4, -22, -997, -6, 2, 5, 219, 552, 640
6562442466, -4, -22, -997, -6, 2, 5, 219, 552, 640
6562542429, -4, -16, -994, -5, 2, 2, 219, 550, 643
6562542429, -4, -16, -994, -5, 2, 2, 219, 550, 643
6562642375, -1, -20, -998, -6, 3, 1, 218, 549, 648
6562642375, -1, -20, -998, -6, 3, 1, 218, 549, 648
6562742435, -1, -25, -999, -4, 4, 0, 217, 549, 654
6562742435, -1, -25, -999, -4, 4, 0, 217, 549, 654
6562842379, -6, -21, -1000, -4, 0, 5, 217, 545, 653
6562842379, -6, -21, -1000, -4, 0, 5, 217, 545, 653
6562942498, -3, -22, -1001, -4, 0, 5, 216, 546, 658
6562942498, -3, -22, -1001, -4, 0, 5, 216, 546, 658
6563042506, -5, -31, -1001, -4, 3, -1, 216, 538, 653
6563042506, -5, -31, -1001, -4, 3, -1, 216, 538, 653
6563142450, -5, -29, -1004, -3, -5, 7, 215, 543, 664
6563142450, -5, -29, -1004, -3, -5, 7, 215, 543, 664
6563242463, -6, -16, -1006, -2, 3, 5, 215, 542, 667
6563242463, -6, -16, -1006, -2, 3, 5, 215, 542, 667
6563342431, -4, -20, -1002, -3, 1, 5, 214, 543, 673
6563342431, -4, -20, -1002, -3, 1, 5, 214, 543, 673
6563442387, -11, -31, -998, 0, 2, -1, 214, 540, 676
6563442387, -11, -31, -998, 0, 2, -1, 214, 540, 676
6563542392, -5, -33, -1007, -2, 2, -6, 213, 538, 677
6563542392, -5, -33, -1007, -2, 2, -6, 213, 538, 677
6563642488, -14, -58, -998, -1, 0, -4, 213, 536, 677
6563642488, -14, -58, -998, -1, 0, -4, 213, 536, 677
6563742474, -4, -31, -996, -2, 5, -1, 214, 535, 675
6563742474, -4, -31, -996, -2, 5, -1, 214, 535, 675
6563842952, -7, -21, -1002, -2, 1, -4, 214, 539, 676
6563842952, -7, -21, -1002, -2, 1, -4, 214, 539, 676
6563942836, -9, -29, -1000, -1, 2, -19, 214, 534, 668
6563942836, -9, -29, -1000, -1, 2, -19, 214, 534, 668
6564042469, -1, -24, -996, -4, 1, -27, 215, 524, 654
6564042469, -1, -24, -996, -4, 1, -27, 215, 524, 654
6564142424, 0, 4, -1000, -3, 1, 4, 215, 526, 652
6564142424, 0, 4, -1000, -3, 1, 4, 215, 526, 652
6564242428, -4, -5, -999, -4, 8, 35, 215, 535, 660
6564342445, -10, -31, -1000, -5, 5, 27, 216, 539, 665
6564342445, -10, -31, -1000, -5, 5, 27, 216, 539, 665
6564442605, -12, -21, -995, -2, 3, 0, 217, 540, 667
6564442605, -12, -21, -995, -2, 3, 0, 217, 540, 667
6564542522, -10, -15, -1001, -3, 0, -28, 217, 538, 665
6564542522, -10, -15, -1001, -3, 0, -28, 217, 538, 665
6564642396, 4, -24, -998, -4, 0, -20, 216, 539, 665
6564642396, 4, -24, -998, -4, 0, -20, 216, 539, 665
6564742467, 1, -16, -1003, -4, 1, 2, 215, 541, 666
6564742467, 1, -16, -1003, -4, 1, 2, 215, 541, 666
