framerate = 10f
Time (us), Accel_X (mG), Accel_Y (mG), Accel_Z (mG), Gyro_X (mRad/s), Gyro_Y (mRad/s), Gyro_Z (mRad/s), Mag_X (mGauss), Mag_Y (mGauss), Mag_Z (mGauss)
6676142517, -10, -16, -996, -6, 4, -12, 269, 258, 16
6676142517, -10, -16, -996, -6, 4, -12, 269, 258, 16
6676242452, -9, -18, -1001, -2, 2, -14, 268, 257, 14
6676242452, -9, -18, -1001, -2, 2, -14, 268, 257, 14
6676342426, -7, -22, -990, -5, 1, -11, 268, 255, 12
6676342426, -7, -22, -990, -5, 1, -11, 268, 255, 12
6676442509, -9, -27, -1002, -7, 1, -5, 268, 255, 12
6676442509, -9, -27, -1002, -7, 1, -5, 268, 255, 12
6676542439, -8, -24, -1000, -2, 2, 0, 268, 252, 7
6676542439, -8, -24, -1000, -2, 2, 0, 268, 252, 7
6676642427, -10, -22, -999, -2, 1, 6, 268, 260, 16
6676642427, -10, -22, -999, -2, 1, 6, 268, 260, 16
6676742498, -10, -23, -1000, -4, 3, 10, 268, 260, 17
6676742498, -10, -23, -1000, -4, 3, 10, 268, 260, 17
6676842381, -16, -29, -999, -5, -1, 8, 268, 260, 17
6676842381, -16, -29, -999, -5, -1, 8, 268, 260, 17
6676942712, -17, -24, -994, -5, 4, -9, 269, 260, 18
6676942712, -17, -24, -994, -5, 4, -9, 269, 260, 18
6677042673, -6, -14, -994, -5, 4, -23, 268, 261, 19
6677042673, -6, -14, -994, -5, 4, -23, 268, 261, 19
6677142374, -2, -23, -995, -6, 3, -17, 269, 252, 8
6677142374, -2, -23, -995, -6, 3, -17, 269, 252, 8
6677242457, -7, -19, -1000, -4, 0, 1, 269, 259, 15
6677242457, -7, -19, -1000, -4, 0, 1, 269, 259, 15
6677342525, -5, -18, -1000, -3, 4, 12, 268, 257, 13
6677342525, -5, -18, -1000, -3, 4, 12, 268, 257, 13
6677442439, -14, -27, -1001, -4, 5, 7, 269, 250, 7
6677442439, -14, -27, -1001, -4, 5, 7, 269, 250, 7
6677542390, -10, -33, -1001, -5, 4, -7, 269, 256, 13
6677542390, -10, -33, -1001, -5, 4, -7, 269, 256, 13
6677642420, -4, -28, -996, -5, -2, -16, 269, 259, 17
6677642420, -4, -28, -996, -5, -2, -16, 269, 259, 17
6677742388, -4, -14, -996, -3, -1, -9, 268, 259, 16
6677742388, -4, -14, -996, -3, -1, -9, 268, 259, 16
6677842400, -5, -20, -997, -5, 1, 0, 268, 260, 17
6677842400, -5, -20, -997, -5, 1, 0, 268, 260, 17
6677942529, -9, -19, -1000, -1, 2, 12, 268, 258, 15
6677942529, -9, -19, -1000, -1, 2, 12, 268, 258, 15
6678042451, -9, -24, -999, -4, 0, 13, 268, 258, 16
6678042451, -9, -24, -999, -4, 0, 13, 268, 258, 16
6678142477, -14, -28, -996, -4, 5, 0, 268, 259, 16
6678142477, -14, -28, -996, -4, 5, 0, 268, 259, 16
6678242481, -11, -14, -998, -4, 0, -9, 269, 259, 16
6678242481, -11, -14, -998, -4, 0, -9, 269, 259, 16
6678342432, -5, -20, -1001, -3, 3, -7, 269, 254, 11
6678342432, -5, -20, -1001, -3, 3, -7, 269, 254, 11
6678442488, -8, -29, -1001, -4, 0, 3, 269, 258, 15
6678442488, -8, -29, -1001, -4, 0, 3, 269, 258, 15
6678542502, -12, -34, -1005, -5, 0, 3, 269, 240, -3
6678542502, -12, -34, -1005, -5, 0, 3, 269, 240, -3
6678642468, -6, -19, -1001, -1, 2, -4, 269, 257, 15
6678642468, -6, -19, -1001, -1, 2, -4, 269, 257, 15
6678742454, -9, -24, -997, -2, 0, -7, 269, 259, 17
6678742454, -9, -24, -997, -2, 0, -7, 269, 259, 17
6678842491, -7, -15, -993, -5, 1, -2, 269, 259, 17
6678842491, -7, -15, -993, -5, 1, -2, 269, 259, 17
6678942495, -11, -25, -1001, -3, 1, 2, 269, 256, 13
6678942495, -11, -25, -1001, -3, 1, 2, 269, 256, 13
6679042397, -7, -23, -1001, -5, 1, 3, 269, 252, 9
6679042397, -7, -23, -1001, -5, 1, 3, 269, 252, 9
6679142536, -18, -27, -1002, -4, 2, -4, 269, 256, 13
6679142536, -18, -27, -1002, -4, 2, -4, 269, 256, 13
6679242461, -8, -27, -1001, -3, 1, -14, 269, 251, 7
6679242461, -8, -27, -1001, -3, 1, -14, 269, 251, 7
6679342441, -4, -20, -999, -3, 2, -11, 269, 259, 16
6679342441, -4, -20, -999, -3, 2, -11, 269, 259, 16
6679442623, -8, -18, -998, -3, 0, 5, 268, 259, 16
6679442623, -8, -18, -998, -3, 0, 5, 268, 259, 16
6679542434, -6, -33, -996, -3, 2, 19, 269, 252, 8
6679542434, -6, -33, -996, -3, 2, 19, 269, 252, 8
6679642421, -13, -21, -998, -5, 3, 9, 268, 260, 17
6679642421, -13, -21, -998, -5, 3, 9, 268, 260, 17
6679742436, -14, -22, -998, -4, 5, -10, 269, 259, 17
6679742436, -14, -22, -998, -4, 5, -10, 269, 259, 17
6679842381, 0, -25, -1000, -3, 3, -11, 269, 259, 17
6679842381, 0, -25, -1000, -3, 3, -11, 269, 259, 17
6679942446, -7, -14, -1002, -3, 2, 9, 268, 259, 16
6679942446, -7, -14, -1002, -3, 2, 9, 268, 259, 16
6680042503, -20, -25, -1002, -4, 1, 7, 269, 259, 16
6680042503, -20, -25, -1002, -4, 1, 7, 269, 259, 16
6680142479, -14, -27, -999, -2, 3, -6, 269, 258, 15
6680142479, -14, -27, -999, -2, 3, -6, 269, 258, 15
6680242465, -5, -31, -999, -5, 3, -2, 269, 249, 6
6680242465, -5, -31, -999, -5, 3, -2, 269, 249, 6
6680342432, -8, -20, -999, -3, 4, 1, 269, 254, 11
6680342432, -8, -20, -999, -3, 4, 1, 269, 254, 11
6680442381, -12, -14, -1000, -4, 1, -1, 269, 257, 14
6680442381, -12, -14, -1000, -4, 1, -1, 269, 257, 14
6680542388, -4, -36, -1002, -3, 2, -2, 268, 259, 16
6680542388, -4, -36, -1002, -3, 2, -2, 268, 259, 16
6680642504, -10, -28, -1006, -4, 0, -1, 268, 258, 16
6680642504, -10, -28, -1006, -4, 0, -1, 268, 258, 16
6680742439, -13, -23, -1008, -2, 3, -1, 269, 259, 17
6680742439, -13, -23, -1008, -2, 3, -1, 269, 259, 17
6680842448, -7, -17, -995, -3, 0, 0, 269, 258, 16
6680842448, -7, -17, -995, -3, 0, 0, 269, 258, 16
6680942504, -5, -15, -996, -2, 2, 4, 269, 258, 17
6680942504, -5, -15, -996, -2, 2, 4, 269, 258, 17
6681042385, -10, -6, -997, -3, 5, 11, 269, 257, 16
6681042385, -10, -6, -997, -3, 5, 11, 269, 257, 16
6681142495, -7, -19, -998, -7, 3, 12, 269, 256, 15
6681142495, -7, -19, -998, -7, 3, 12, 269, 256, 15
6681242435, -12, -23, -1005, -2, 7, 16, 269, 250, 7
6681242435, -12, -23, -1005, -2, 7, 16, 269, 250, 7
6681342538, -7, -26, -998, -6, 7, 11, 269, 253, 11
6681342538, -7, -26, -998, -6, 7, 11, 269, 253, 11
6681442581, -4, -23, -995, -5, 4, 4, 269, 250, 8
6681442581, -4, -23, -995, -5, 4, 4, 269, 250, 8
6681542491, -7, -13, -1000, -3, 0, 6, 269, 257, 16
6681542491, -7, -13, -1000, -3, 0, 6, 269, 257, 16
6681642375, -14, -16, -998, -2, 1, 7, 268, 258, 16
6681642375, -14, -16, -998, -2, 1, 7, 268, 258, 16
6681742390, -9, -3, -1000, -2, 1, 11, 268, 259, 16
6681742390, -9, -3, -1000, -2, 1, 11, 268, 259, 16
6681842445, -7, -20, -1003, -2, 5, 13, 268, 259, 16
6681842445, -7, -20, -1003, -2, 5, 13, 268, 259, 16
6681942416, -18, -37, -1013, -3, 4, 0, 267, 259, 16
6681942416, -18, -37, -1013, -3, 4, 0, 267, 259, 16
6682042464, -14, -38, -1002, 0, 1, -3, 267, 257, 13
6682042464, -14, -38, -1002, 0, 1, -3, 267, 257, 13
6682148033, -7, -25, -1001, -3, 3, 7, 266, 263, 18
6682148033, -7, -25, -1001, -3, 3, 7, 266, 263, 18
6682242499, -11, -22, -1001, -3, 8, 12, 266, 254, 7
6682242499, -11, -22, -1001, -3, 8, 12, 266, 254, 7
6682342433, -9, -19, -1005, -4, 8, 7, 266, 247, 0
6682342433, -9, -19, -1005, -4, 8, 7, 266, 247, 0
6682442450, -5, -22, -1003, 0, 0, 5, 265, 260, 12
6682442450, -5, -22, -1003, 0, 0, 5, 265, 260, 12
6682542396, -6, -31, -998, -2, 1, 5, 264, 266, 17
6682542396, -6, -31, -998, -2, 1, 5, 264, 266, 17
6682642390, -11, -32, -1002, -5, 0, 6, 263, 267, 17
6682642390, -11, -32, -1002, -5, 0, 6, 263, 267, 17
6682742507, -4, -41, -1000, -5, 0, 9, 263, 267, 16
6682742507, -4, -41, -1000, -5, 0, 9, 263, 267, 16
6682842451, -8, -39, -1005, -4, -1, 6, 263, 270, 18
6682842451, -8, -39, -1005, -4, -1, 6, 263, 270, 18
6682942479, -9, -41, -1007, -2, 1, 2, 263, 269, 17
6682942479, -9, -41, -1007, -2, 1, 2, 263, 269, 17
6683042451, -8, -40, -1001, -5, -1, 0, 262, 271, 18
6683042451, -8, -40, -1001, -5, -1, 0, 262, 271, 18
6683142447, -13, -31, -995, -7, 1, -1, 262, 270, 16
6683142447, -13, -31, -995, -7, 1, -1, 262, 270, 16
6683242377, -6, -19, -1000, -6, 1, 0, 262, 264, 9
6683242377, -6, -19, -1000, -6, 1, 0, 262, 264, 9
6683342439, -8, -27, -1000, -3, 0, 0, 262, 273, 17
6683342439, -8, -27, -1000, -3, 0, 0, 262, 273, 17
6683442435, -12, -25, -999, -3, 0, 3, 262, 267, 10
6683442435, -12, -25, -999, -3, 0, 3, 262, 267, 10
6683542440, -11, -17, -997, -2, 0, 0, 262, 266, 8
6683542440, -11, -17, -997, -2, 0, 0, 262, 266, 8
6683642484, -7, -31, -996, -1, 3, -5, 261, 278, 21
6683642484, -7, -31, -996, -1, 3, -5, 261, 278, 21
6683742371, -14, -29, -996, -2, -6, -13, 260, 280, 22
6683742371, -14, -29, -996, -2, -6, -13, 260, 280, 22
6683842380, -13, -27, -995, -3, 0, -13, 260, 282, 23
6683842380, -13, -27, -995, -3, 0, -13, 260, 282, 23
6683942438, -19, -21, -1004, -2, -2, -15, 259, 282, 22
6683942438, -19, -21, -1004, -2, -2, -15, 259, 282, 22
6684042430, -5, -25, -1003, -3, 2, -12, 259, 285, 24
6684042430, -5, -25, -1003, -3, 2, -12, 259, 285, 24
6684142489, -6, -29, -999, -3, 0, -5, 258, 285, 23
6684142489, -6, -29, -999, -3, 0, -5, 258, 285, 23
6684242488, -10, -31, -1004, -4, 0, -4, 258, 282, 19
6684242488, -10, -31, -1004, -4, 0, -4, 258, 282, 19
6684342446, -10, -26, -1004, -1, 2, -4, 258, 283, 18
6684342446, -10, -26, -1004, -1, 2, -4, 258, 283, 18
6684442390, -7, -15, -997, -4, 2, 0, 257, 291, 26
6684442390, -7, -15, -997, -4, 2, 0, 257, 291, 26
6684542431, -12, -26, -999, -2, 1, 0, 257, 293, 29
6684542431, -12, -26, -999, -2, 1, 0, 257, 293, 29
6684642365, -12, -25, -1000, -1, 1, 5, 257, 295, 31
6684642365, -12, -25, -1000, -1, 1, 5, 257, 295, 31
6684742443, -13, -21, -1003, 0, 6, 10, 256, 297, 32
6684742443, -13, -21, -1003, 0, 6, 10, 256, 297, 32
6684842498, -12, -27, -995, -4, 5, 7, 256, 298, 34
6684842498, -12, -27, -995, -4, 5, 7, 256, 298, 34
6684942434, -11, -33, -998, -5, 0, 2, 256, 297, 32
6684942434, -11, -33, -998, -5, 0, 2, 256, 297, 32
6685042443, -15, -34, -999, -4, 2, 0, 256, 300, 36
6685042443, -15, -34, -999, -4, 2, 0, 256, 300, 36
6685142488, -9, -28, -997, -6, 3, -1, 256, 299, 35
6685142488, -9, -28, -997, -6, 3, -1, 256, 299, 35
6685242377, -13, -23, -999, -2, 2, 1, 256, 293, 29
6685242377, -13, -23, -999, -2, 2, 1, 256, 293, 29
6685342432, -8, -35, -1004, -2, 2, 13, 255, 300, 36
6685342432, -8, -35, -1004, -2, 2, 13, 255, 300, 36
6685442489, -12, -39, -1000, -5, 4, 15, 255, 299, 36
6685442489, -12, -39, -1000, -5, 4, 15, 255, 299, 36
6685542442, -18, -36, -1000, -9, 7, 11, 255, 307, 46
6685542442, -18, -36, -1000, -9, 7, 11, 255, 307, 46
6685642445, -9, -27, -1001, -5, 3, 0, 255, 308, 47
6685642445, -9, -27, -1001, -5, 3, 0, 255, 308, 47
6685742536, -6, -35, -1004, -6, 5, -20, 255, 310, 49
6685742536, -6, -35, -1004, -6, 5, -20, 255, 310, 49
6685842423, -11, -46, -996, -2, -3, -21, 255, 311, 51
6685842423, -11, -46, -996, -2, -3, -21, 255, 311, 51
6685942428, -10, -21, -1001, -1, -2, -2, 254, 310, 50
6685942428, -10, -21, -1001, -1, -2, -2, 254, 310, 50
6686042470, -7, -24, -999, -4, 2, 4, 254, 313, 54
6686042470, -7, -24, -999, -4, 2, 4, 254, 313, 54
6686142530, -8, -4, -1003, -13, 4, 9, 254, 312, 53
6686142530, -8, -4, -1003, -13, 4, 9, 254, 312, 53
6686242483, -1, -26, -989, -3, 12, 5, 255, 306, 48
6686242483, -1, -26, -989, -3, 12, 5, 255, 306, 48
6686342587, 1, -20, -994, -2, 4, 15, 254, 310, 53
6686342587, 1, -20, -994, -2, 4, 15, 254, 310, 53
6686442383, -10, -9, -988, -3, 1, 24, 254, 314, 58
6686442383, -10, -9, -988, -3, 1, 24, 254, 314, 58
6686542381, -18, -22, -996, 0, 0, 18, 254, 316, 62
6686542381, -18, -22, -996, 0, 0, 18, 254, 316, 62
6686642411, -18, -28, -1000, 0, 0, 7, 255, 317, 65
6686642411, -18, -28, -1000, 0, 0, 7, 255, 317, 65
6686742375, -14, -31, -1003, 1, 4, 7, 255, 318, 68
6686742375, -14, -31, -1003, 1, 4, 7, 255, 318, 68
6686842441, -13, -40, -1000, -2, 2, 10, 255, 319, 71
6686842441, -13, -40, -1000, -2, 2, 10, 255, 319, 71
6686942503, -7, -41, -999, -4, 3, 8, 255, 318, 71
6686942503, -7, -41, -999, -4, 3, 8, 255, 318, 71
6687042460, -13, -35, -1005, -2, 3, 7, 255, 320, 75
6687042460, -13, -35, -1005, -2, 3, 7, 255, 320, 75
6687142471, -7, -32, -1007, -4, 3, -1, 255, 318, 74
6687142471, -7, -32, -1007, -4, 3, -1, 255, 318, 74
6687247793, -14, -40, -1011, 0, 0, -1, 255, 315, 72
6687247793, -14, -40, -1011, 0, 0, -1, 255, 315, 72
6687342498, -13, -37, -1009, 0, 3, -3, 255, 315, 75
6687342498, -13, -37, -1009, 0, 3, -3, 255, 315, 75
6687442380, -12, -24, -996, -2, 1, 1, 255, 301, 61
6687442380, -12, -24, -996, -2, 1, 1, 255, 301, 61
6687542516, -11, -24, -1002, -3, 4, 4, 254, 320, 83
6687542516, -11, -24, -1002, -3, 4, 4, 254, 320, 83
6687642547, -12, -33, -1003, -1, 4, -1, 254, 322, 89
6687642547, -12, -33, -1003, -1, 4, -1, 254, 322, 89
6687742450, -9, -29, -995, -2, 0, -3, 254, 321, 89
6687742450, -9, -29, -995, -2, 0, -3, 254, 321, 89
6687842422, -11, -24, -996, 0, 2, -7, 254, 323, 94
6687842422, -11, -24, -996, 0, 2, -7, 254, 323, 94
6687942382, -9, -23, -998, -2, 0, -13, 253, 323, 96
6687942382, -9, -23, -998, -2, 0, -13, 253, 323, 96
6688042435, -7, -31, -999, -2, 3, -14, 253, 324, 99
6688042435, -7, -31, -999, -2, 3, -14, 253, 324, 99
6688142499, -15, -37, -997, -3, 3, -10, 253, 322, 99
6688142499, -15, -37, -997, -3, 3, -10, 253, 322, 99
6688242458, -3, -30, -996, -5, 3, -8, 252, 321, 100
6688242458, -3, -30, -996, -5, 3, -8, 252, 321, 100
6688342455, -7, -41, -1003, -5, 5, -3, 252, 321, 101
6688342455, -7, -41, -1003, -5, 5, -3, 252, 321, 101
6688442492, -7, -41, -1002, -2, 1, 0, 252, 326, 108
6688442492, -7, -41, -1002, -2, 1, 0, 252, 326, 108
6688542438, -5, -30, -1007, -2, 1, 8, 252, 326, 111
6688542438, -5, -30, -1007, -2, 1, 8, 252, 326, 111
6688642401, -15, -31, -1004, -4, 1, 1, 252, 320, 105
6688642401, -15, -31, -1004, -4, 1, 1, 252, 320, 105
6688742435, -5, -33, -1004, -3, 1, -9, 252, 327, 115
6688742435, -5, -33, -1004, -3, 1, -9, 252, 327, 115
6688842445, -10, -30, -1008, -3, 3, -4, 252, 327, 117
6688842445, -10, -30, -1008, -3, 3, -4, 252, 327, 117
6688942478, -11, -33, -1005, -5, 4, -2, 251, 327, 120
6688942478, -11, -33, -1005, -5, 4, -2, 251, 327, 120
6689042519, -7, -24, -999, -4, 2, -1, 251, 317, 112
6689042519, -7, -24, -999, -4, 2, -1, 251, 317, 112
6689142484, -9, -35, -999, -5, 3, 0, 251, 321, 118
6689142484, -9, -35, -999, -5, 3, 0, 251, 321, 118
6689242448, -8, -42, -1001, -3, 3, 1, 251, 318, 117
6689242448, -8, -42, -1001, -3, 3, 1, 251, 318, 117
6689342481, -6, -34, -1003, -3, 2, -3, 251, 320, 122
6689342481, -6, -34, -1003, -3, 2, -3, 251, 320, 122
6689442390, -8, -31, -1003, -5, 2, -12, 251, 318, 122
6689442390, -8, -31, -1003, -5, 2, -12, 251, 318, 122
6689542477, -12, -35, -1004, -1, 0, -17, 250, 326, 134
6689542477, -12, -35, -1004, -1, 0, -17, 250, 326, 134
6689642495, -5, -18, -1002, -4, 3, -8, 250, 326, 136
6689642495, -5, -18, -1002, -4, 3, -8, 250, 326, 136
6689742449, -6, -22, -999, -1, 5, -3, 249, 327, 139
6689742449, -6, -22, -999, -1, 5, -3, 249, 327, 139
6689842458, -9, -28, -994, 0, 1, -2, 249, 327, 142
6689842458, -9, -28, -994, 0, 1, -2, 249, 327, 142
6689942501, -6, -26, -996, -1, 5, -4, 249, 327, 146
6689942501, -6, -26, -996, -1, 5, -4, 249, 327, 146
6690042406, -6, -31, -995, -2, 2, -3, 249, 326, 148
6690042406, -6, -31, -995, -2, 2, -3, 249, 326, 148
6690142452, -2, -34, -1004, -3, 2, 1, 249, 324, 148
6690142452, -2, -34, -1004, -3, 2, 1, 249, 324, 148
6690242566, -5, -47, -1003, -3, 1, 4, 249, 317, 145
6690242566, -5, -47, -1003, -3, 1, 4, 249, 317, 145
6690342461, -2, -49, -1004, 0, 0, 9, 249, 320, 152
6690342461, -2, -49, -1004, 0, 0, 9, 249, 320, 152
6690442481, -6, -62, -997, -1, -3, 19, 249, 323, 158
6690442481, -6, -62, -997, -1, -3, 19, 249, 323, 158
6690542508, -4, -37, -996, -4, 3, 31, 250, 321, 159
6690542508, -4, -37, -996, -4, 3, 31, 250, 321, 159
6690642383, -15, -49, -993, 0, 0, 27, 250, 320, 160
6690642383, -15, -49, -993, 0, 0, 27, 250, 320, 160
6690742380, -7, -27, -1000, -4, 5, 5, 251, 320, 161
6690742380, -7, -27, -1000, -4, 5, 5, 251, 320, 161
6690842423, -8, -31, -1001, -3, 0, -7, 251, 320, 161
6690842423, -8, -31, -1001, -3, 0, -7, 251, 320, 161
6690942437, -3, -10, -996, -3, -3, 6, 251, 320, 161
6690942437, -3, -10, -996, -3, -3, 6, 251, 320, 161
6691042451, -22, -5, -997, -4, -1, 12, 251, 318, 161
6691042451, -22, -5, -997, -4, -1, 12, 251, 318, 161
6691142580, -11, 17, -1008, 0, -3, 10, 251, 314, 158
6691142580, -11, 17, -1008, 0, -3, 10, 251, 314, 158
6691242374, -13, 6, -994, -4, -10, 21, 252, 304, 150
6691242374, -13, 6, -994, -4, -10, 21, 252, 304, 150
6691342387, -24, -12, -998, -3, 8, 8, 252, 305, 156
6691342387, -24, -12, -998, -3, 8, 8, 252, 305, 156
6691442555, -5, -26, -991, 0, 5, 6, 252, 310, 166
6691442555, -5, -26, -991, 0, 5, 6, 252, 310, 166
6691542385, -13, -29, -993, 0, 2, 18, 252, 308, 171
6691542385, -13, -29, -993, 0, 2, 18, 252, 308, 171
6691642439, -16, -36, -990, -5, 6, 11, 252, 310, 178
6691642439, -16, -36, -990, -5, 6, 11, 252, 310, 178
6691742499, -19, -28, -991, -6, 10, 7, 252, 308, 182
6691742499, -19, -28, -991, -6, 10, 7, 252, 308, 182
6691842460, -15, -16, -998, -10, 24, -12, 252, 306, 185
6691842460, -15, -16, -998, -10, 24, -12, 252, 306, 185
6691942422, 0, -46, -1004, -6, 15, -25, 251, 304, 188
6691942422, 0, -46, -1004, -6, 15, -25, 251, 304, 188
6692042455, 5, -66, -995, -3, 1, -6, 250, 303, 193
6692042455, 5, -66, -995, -3, 1, -6, 250, 303, 193
6692142384, -5, -67, -1009, -2, 2, 0, 250, 298, 192
6692142384, -5, -67, -1009, -2, 2, 0, 250, 298, 192
6692242399, -2, -48, -1005, -1, 0, 0, 249, 299, 196
6692242399, -2, -48, -1005, -1, 0, 0, 249, 299, 196
6692347690, -11, -24, -1006, 1, 1, -2, 249, 299, 198
6692347690, -11, -24, -1006, 1, 1, -2, 249, 299, 198
6692442868, -8, -17, -1001, -1, 5, 0, 249, 303, 204
6692442868, -8, -17, -1001, -1, 5, 0, 249, 303, 204
6692542568, -7, -13, -998, -4, 3, 3, 249, 292, 194
6692542568, -7, -13, -998, -4, 3, 3, 249, 292, 194
6692642493, 1, -9, -994, -3, 12, 10, 249, 290, 195
6692642493, 1, -9, -994, -3, 12, 10, 249, 290, 195
6692742408, 4, -30, -998, -6, 2, 13, 249, 294, 203
6692742408, 4, -30, -998, -6, 2, 13, 249, 294, 203
6692842398, 3, -35, -1001, -1, 2, 16, 249, 293, 207
6692842398, 3, -35, -1001, -1, 2, 16, 249, 293, 207
6692942451, -6, -36, -1005, -2, 0, 11, 248, 288, 207
6692942451, -6, -36, -1005, -2, 0, 11, 248, 288, 207
6693042486, -8, -24, -1002, -2, 2, 6, 248, 288, 210
6693042486, -8, -24, -1002, -2, 2, 6, 248, 288, 210
6693142546, -7, -34, -1004, -1, 4, 0, 248, 283, 209
6693142546, -7, -34, -1004, -1, 4, 0, 248, 283, 209
6693242632, 2, -41, -998, -5, 4, -3, 249, 270, 199
6693242632, 2, -41, -998, -5, 4, -3, 249, 270, 199
6693342463, -10, -32, -1001, -2, -3, -16, 248, 275, 208
6693342463, -10, -32, -1001, -2, -3, -16, 248, 275, 208
6693442474, 4, -44, -995, -4, 1, -12, 248, 280, 217
6693442474, 4, -44, -995, -4, 1, -12, 248, 280, 217
6693542429, -3, -47, -1000, -8, 2, -13, 247, 281, 221
6693542429, -3, -47, -1000, -8, 2, -13, 247, 281, 221
6693642383, -7, -46, -1000, -4, 0, -9, 247, 272, 216
6693642383, -7, -46, -1000, -4, 0, -9, 247, 272, 216
6693742458, 1, -28, -1000, -3, -2, -7, 246, 278, 224
6693742458, 1, -28, -1000, -3, -2, -7, 246, 278, 224
6693842507, -9, -23, -996, -6, 4, -3, 246, 277, 225
6693842507, -9, -23, -996, -6, 4, -3, 246, 277, 225
6693942506, -3, -30, -996, -7, 4, -10, 245, 273, 224
6693942506, -3, -30, -996, -7, 4, -10, 245, 273, 224
6694042394, 6, -31, -1000, -6, 2, -8, 245, 273, 227
6694042394, 6, -31, -1000, -6, 2, -8, 245, 273, 227
6694142432, 0, -28, -999, -6, -2, 0, 245, 270, 225
6694142432, 0, -28, -999, -6, -2, 0, 245, 270, 225
6694242408, -10, -38, -1004, -5, -1, -5, 245, 270, 228
6694242408, -10, -38, -1004, -5, -1, -5, 245, 270, 228
6694342559, -5, -38, -998, -7, 0, -13, 244, 262, 222
6694342559, -5, -38, -998, -7, 0, -13, 244, 262, 222
6694442651, -8, -32, -1005, -5, 4, -5, 244, 268, 231
6694442651, -8, -32, -1005, -5, 4, -5, 244, 268, 231
6694542428, 1, -33, -998, -6, 1, -3, 244, 261, 227
6694542428, 1, -33, -998, -6, 1, -3, 244, 261, 227
6694642424, 0, -35, -995, -5, 6, -4, 243, 265, 234
6694642424, 0, -35, -995, -5, 6, -4, 243, 265, 234
6694742468, -5, -31, -999, -4, 4, 0, 242, 264, 236
6694742468, -5, -31, -999, -4, 4, 0, 242, 264, 236
6694842423, 2, -31, -1000, -4, 4, 0, 243, 263, 236
6694842423, 2, -31, -1000, -4, 4, 0, 243, 263, 236
6694942382, -4, -36, -998, -5, 0, 0, 242, 260, 235
6694942382, -4, -36, -998, -5, 0, 0, 242, 260, 235
6695042478, -5, -39, -999, -3, -1, -7, 242, 259, 236
6695042478, -5, -39, -999, -3, -1, -7, 242, 259, 236
6695142749, -1, -32, -1004, -1, -1, 0, 242, 256, 234
6695142749, -1, -32, -1004, -1, -1, 0, 242, 256, 234
6695242517, -1, -18, -999, -4, 0, 2, 242, 247, 225
6695242517, -1, -18, -999, -4, 0, 2, 242, 247, 225
6695347463, 0, -24, -998, -4, 6, 3, 242, 251, 231
6695347463, 0, -24, -998, -4, 6, 3, 242, 251, 231
6695442458, 0, -32, -995, -5, 1, 1, 241, 257, 239
6695442458, 0, -32, -995, -5, 1, 1, 241, 257, 239
6695542416, -6, -24, -1003, -3, 0, 1, 241, 253, 237
6695542416, -6, -24, -1003, -3, 0, 1, 241, 253, 237
6695642473, 0, -37, -1001, -3, 3, -2, 241, 253, 238
6695642473, 0, -37, -1001, -3, 3, -2, 241, 253, 238
6695742478, -1, -30, -1002, -4, -2, 4, 240, 252, 240
6695742478, -1, -30, -1002, -4, -2, 4, 240, 252, 240
6695842498, -12, -32, -998, -1, 5, 6, 240, 251, 240
6695842498, -12, -32, -998, -1, 5, 6, 240, 251, 240
6695942624, -5, -28, -1000, -2, 3, -5, 240, 250, 240
6695942624, -5, -28, -1000, -2, 3, -5, 240, 250, 240
6696042392, 4, -31, -998, -2, 5, 2, 240, 249, 239
6696042392, 4, -31, -998, -2, 5, 2, 240, 249, 239
6696142476, -2, -34, -1001, -3, 0, 6, 239, 243, 235
6696142476, -2, -34, -1001, -3, 0, 6, 239, 243, 235
6696242474, -5, -34, -997, -5, 1, -1, 240, 237, 230
6696242474, -5, -34, -997, -5, 1, -1, 240, 237, 230
6696342474, 0, -22, -1004, -5, 4, 2, 239, 238, 232
6696342474, 0, -22, -1004, -5, 4, 2, 239, 238, 232
6696442607, 2, -26, -998, -3, 6, 6, 238, 243, 238
6696442607, 2, -26, -998, -3, 6, 6, 238, 243, 238
6696542560, 0, -28, -1004, -1, 3, 3, 238, 242, 238
6696542560, 0, -28, -1004, -1, 3, 3, 238, 242, 238
6696642469, 1, -29, -996, -1, 3, 5, 237, 242, 240
6696642469, 1, -29, -996, -1, 3, 5, 237, 242, 240
6696742460, -3, -32, -1001, -3, 2, 3, 237, 241, 241
6696742460, -3, -32, -1001, -3, 2, 3, 237, 241, 241
6696842529, 0, -30, -998, -5, 3, 2, 236, 240, 241
6696842529, 0, -30, -998, -5, 3, 2, 236, 240, 241
6696942562, -3, -34, -997, -5, 5, 0, 235, 239, 241
6696942562, -3, -34, -997, -5, 5, 0, 235, 239, 241
6697042523, -6, -23, -997, -5, 2, 0, 235, 233, 237
6697042523, -6, -23, -997, -5, 2, 0, 235, 233, 237
6697142742, 2, -23, -1004, -7, 3, -1, 234, 235, 239
6697142742, 2, -23, -1004, -7, 3, -1, 234, 235, 239
6697242524, 0, -31, -995, -5, 4, 0, 234, 221, 227
6697242524, 0, -31, -995, -5, 4, 0, 234, 221, 227
6697342553, -1, -25, -1002, -5, 0, 0, 233, 228, 236
6697342553, -1, -25, -1002, -5, 0, 0, 233, 228, 236
6697442659, -2, -14, -999, -5, 2, 0, 232, 231, 240
6697442659, -2, -14, -999, -5, 2, 0, 232, 231, 240
6697542852, -2, -34, -999, -7, 0, 0, 231, 228, 237
6697542852, -2, -34, -999, -7, 0, 0, 231, 228, 237
6697642629, -4, -33, -1000, -6, 1, -5, 230, 231, 242
6697642629, -4, -33, -1000, -6, 1, -5, 230, 231, 242
6697742453, 5, -28, -1000, -5, 0, -6, 229, 222, 232
6697742453, 5, -28, -1000, -5, 0, -6, 229, 222, 232
6697842461, -2, -38, -1001, -5, 3, -7, 229, 225, 236
6697842461, -2, -38, -1001, -5, 3, -7, 229, 225, 236
6697942557, 2, -40, -1005, -6, 1, -5, 228, 225, 237
6697942557, 2, -40, -1005, -6, 1, -5, 228, 225, 237
6698042537, 4, -39, -1002, -5, 1, -3, 227, 221, 234
6698042537, 4, -39, -1002, -5, 1, -3, 227, 221, 234
6698142443, 2, -37, -998, -5, 1, -6, 227, 223, 236
6698142443, 2, -37, -998, -5, 1, -6, 227, 223, 236
6698242393, 1, -31, -1004, -3, 0, -5, 227, 208, 221
6698242393, 1, -31, -1004, -3, 0, -5, 227, 208, 221
6698342452, 0, -29, -997, -3, 0, -3, 225, 218, 232
6698342452, 0, -29, -997, -3, 0, -3, 225, 218, 232
6698442394, -1, -25, -998, -4, -6, -10, 225, 222, 235
6698442394, -1, -25, -998, -4, -6, -10, 225, 222, 235
6698542444, -4, -34, -1003, -4, -1, -10, 224, 216, 229
6698542444, -4, -34, -1003, -4, -1, -10, 224, 216, 229
6698642741, 2, -37, -999, -6, 3, -4, 223, 220, 233
6698642741, 2, -37, -999, -6, 3, -4, 223, 220, 233
6698742446, 0, -34, -999, -4, 2, -2, 223, 213, 225
6698742446, 0, -34, -999, -4, 2, -2, 223, 213, 225
6698842404, 0, -30, -1002, -4, 2, -2, 222, 220, 232
6698842404, 0, -30, -1002, -4, 2, -2, 222, 220, 232
6698942452, 0, -26, -1001, -4, -1, 0, 222, 220, 232
6698942452, 0, -26, -1001, -4, -1, 0, 222, 220, 232
6699042495, -3, -28, -1000, -6, 3, 0, 221, 218, 229
6699042495, -3, -28, -1000, -6, 3, 0, 221, 218, 229
6699142547, 5, -23, -999, -5, 2, 0, 221, 210, 221
6699142547, 5, -23, -999, -5, 2, 0, 221, 210, 221
6699242499, -2, -27, -1003, -3, 0, 4, 220, 214, 224
6699242499, -2, -27, -1003, -3, 0, 4, 220, 214, 224
6699342573, -3, -22, -1002, -5, 3, 4, 220, 214, 224
6699342573, -3, -22, -1002, -5, 3, 4, 220, 214, 224
6699442470, 0, -36, -999, -3, 0, 6, 219, 208, 218
6699442470, 0, -36, -999, -3, 0, 6, 219, 208, 218
6699542527, -1, -16, -997, -4, 1, 6, 218, 218, 227
6699542527, -1, -16, -997, -4, 1, 6, 218, 218, 227
6699642410, -4, -20, -1003, -4, 3, 1, 217, 217, 227
6699642410, -4, -20, -1003, -4, 3, 1, 217, 217, 227
6699742424, 3, -31, -998, -4, 2, 1, 217, 218, 226
6699742424, 3, -31, -998, -4, 2, 1, 217, 218, 226
6699842580, 1, -24, -999, -3, 3, 7, 216, 217, 225
6699842580, 1, -24, -999, -3, 3, 7, 216, 217, 225
6699942501, 6, -17, -997, -5, 2, 8, 215, 217, 225
6699942501, 6, -17, -997, -5, 2, 8, 215, 217, 225
6700042551, 0, -20, -1001, -5, 2, 13, 214, 215, 223
6700042551, 0, -20, -1001, -5, 2, 13, 214, 215, 223
6700142642, -4, -26, -999, -4, 3, 14, 214, 216, 222
6700142642, -4, -26, -999, -4, 3, 14, 214, 216, 222
6700242435, -4, -27, -998, -5, 4, 13, 213, 216, 221
6700242435, -4, -27, -998, -5, 4, 13, 213, 216, 221
6700342439, 0, -34, -1000, -6, 2, 10, 212, 216, 220
6700342439, 0, -34, -1000, -6, 2, 10, 212, 216, 220
6700442490, -1, -30, -1000, -5, 1, 7, 211, 209, 213
6700442490, -1, -30, -1000, -5, 1, 7, 211, 209, 213
6700542497, 0, -33, -1000, -5, 2, 9, 211, 207, 209
6700542497, 0, -33, -1000, -5, 2, 9, 211, 207, 209
6700642492, -2, -32, -999, -4, 3, 6, 210, 215, 217
6700642492, -2, -32, -999, -4, 3, 6, 210, 215, 217
6700742627, -5, -29, -1000, -6, 6, 3, 209, 216, 218
6700742627, -5, -29, -1000, -6, 6, 3, 209, 216, 218
6700842416, 1, -29, -997, -5, 3, -1, 209, 216, 218
6700842416, 1, -29, -997, -5, 3, -1, 209, 216, 218
6700942475, 2, -23, -1000, -4, 1, -4, 208, 216, 217
6700942475, 2, -23, -1000, -4, 1, -4, 208, 216, 217
6701042494, 0, -24, -998, -4, 1, -2, 208, 219, 219
6701042494, 0, -24, -998, -4, 1, -2, 208, 219, 219
6701142381, 0, -28, -997, -4, 3, -5, 208, 221, 219
6701142381, 0, -28, -997, -4, 3, -5, 208, 221, 219
6701242556, -3, -26, -998, -4, 3, -9, 208, 218, 215
6701242556, -3, -26, -998, -4, 3, -9, 208, 218, 215
6701342569, 2, -29, -996, -3, 3, -9, 207, 217, 213
6701342569, 2, -29, -996, -3, 3, -9, 207, 217, 213
6701442484, 2, -24, -1000, -2, 0, -4, 206, 224, 220
6701442484, 2, -24, -1000, -2, 0, -4, 206, 224, 220
6701542400, -2, -18, -999, -1, -3, 0, 206, 218, 213
6701542400, -2, -18, -999, -1, -3, 0, 206, 218, 213
6701642425, -10, -33, -997, 0, -4, -10, 206, 220, 214
6701642425, -10, -33, -997, 0, -4, -10, 206, 220, 214
6701742396, -6, 23, -1000, -1, 0, -13, 205, 224, 216
6701742396, -6, 23, -1000, -1, 0, -13, 205, 224, 216
6701842400, -7, -21, -997, -3, 3, -18, 205, 227, 218
6701842400, -7, -21, -997, -3, 3, -18, 205, 227, 218
6701942545, 0, -63, -996, -4, 6, -26, 204, 229, 218
6701942545, 0, -63, -996, -4, 6, -26, 204, 229, 218
6702042461, 3, -25, -1000, -4, 0, -26, 203, 229, 216
6702042461, 3, -25, -1000, -4, 0, -26, 203, 229, 216
6702142442, 0, -14, -1004, -2, 3, -18, 203, 231, 217
6702142442, 0, -14, -1004, -2, 3, -18, 203, 231, 217
6702242451, 0, -19, -999, -1, 0, -5, 202, 232, 217
6702242451, 0, -19, -999, -1, 0, -5, 202, 232, 217
6702342444, -4, -22, -997, -3, 2, -1, 202, 231, 214
6702342444, -4, -22, -997, -3, 2, -1, 202, 231, 214
6702442440, -1, -29, -1000, -4, 1, -6, 202, 225, 206
6702442440, -1, -29, -1000, -4, 1, -6, 202, 225, 206
6702542439, 0, -30, -995, -2, 1, -6, 201, 230, 210
6702542439, 0, -30, -995, -2, 1, -6, 201, 230, 210
6702642530, -1, -30, -994, -5, 1, 0, 200, 237, 216
6702642530, -1, -30, -994, -5, 1, 0, 200, 237, 216
6702747707, -2, -37, -996, -4, 3, 3, 200, 238, 216
6702747707, -2, -37, -996, -4, 3, 3, 200, 238, 216
6702842543, -2, -38, -1001, -3, 2, 1, 200, 235, 212
6702842543, -2, -38, -1001, -3, 2, 1, 200, 235, 212
6702942381, 0, -39, -1006, -3, 0, 1, 200, 232, 207
6702942381, 0, -39, -1006, -3, 0, 1, 200, 232, 207
6703042400, 3, -34, -1002, -2, 1, 4, 200, 237, 213
6703042400, 3, -34, -1002, -2, 1, 4, 200, 237, 213
6703142420, 4, -28, -1002, -4, 1, 11, 200, 240, 215
6703142420, 4, -28, -1002, -4, 1, 11, 200, 240, 215
6703242383, 0, -15, -1004, -3, 0, 11, 200, 237, 211
6703242383, 0, -15, -1004, -3, 0, 11, 200, 237, 211
6703342452, -4, -16, -1005, -4, 2, 12, 200, 239, 213
6703342452, -4, -16, -1005, -4, 2, 12, 200, 239, 213
6703442489, -10, -43, -996, -2, 3, 5, 200, 232, 204
6703442489, -10, -43, -996, -2, 3, 5, 200, 232, 204
6703542469, -2, -4, -1002, -4, 2, 0, 200, 236, 208
6703542469, -2, -4, -1002, -4, 2, 0, 200, 236, 208
6703642393, 4, -15, -998, -3, 4, 7, 199, 238, 210
6703642393, 4, -15, -998, -3, 4, 7, 199, 238, 210
6703742436, -5, -29, -1000, -2, 0, 6, 199, 236, 206
6703742436, -5, -29, -1000, -2, 0, 6, 199, 236, 206
6703842378, 1, -34, -1000, -3, 1, -3, 199, 244, 215
6703842378, 1, -34, -1000, -3, 1, -3, 199, 244, 215
6703942447, -2, -29, -1001, -3, 3, 1, 199, 245, 215
6703942447, -2, -29, -1001, -3, 3, 1, 199, 245, 215
6704042489, 0, -26, -998, -2, 1, 6, 199, 245, 214
6704042489, 0, -26, -998, -2, 1, 6, 199, 245, 214
6704142433, -4, -25, -1001, -2, 1, 2, 199, 246, 214
6704142433, -4, -25, -1001, -2, 1, 2, 199, 246, 214
6704242439, -2, -32, -998, -3, 1, 5, 199, 246, 214
6704242439, -2, -32, -998, -3, 1, 5, 199, 246, 214
6704342594, 0, -30, -1002, -2, 4, 3, 199, 248, 214
6704342594, 0, -30, -1002, -2, 4, 3, 199, 248, 214
6704442386, 4, -34, -1001, -3, 2, 5, 200, 241, 208
6704442386, 4, -34, -1001, -3, 2, 5, 200, 241, 208
6704542451, 1, -30, -1000, -2, 0, 5, 200, 245, 211
6704542451, 1, -30, -1000, -2, 0, 5, 200, 245, 211
6704642491, 0, -25, -1001, -2, 3, 1, 200, 244, 210
6704642491, 0, -25, -1001, -2, 3, 1, 200, 244, 210
6704742433, 0, -21, -1000, -1, 0, 6, 200, 251, 217
6704742433, 0, -21, -1000, -1, 0, 6, 200, 251, 217
6704842453, -4, -27, -1003, -2, 1, 5, 200, 252, 217
6704842453, -4, -27, -1003, -2, 1, 5, 200, 252, 217
6704942503, 0, -30, -1000, -2, 3, -4, 200, 252, 218
6704942503, 0, -30, -1000, -2, 3, -4, 200, 252, 218
6705042410, 0, -28, -997, -2, 0, -1, 200, 252, 217
6705042410, 0, -28, -997, -2, 0, -1, 200, 252, 217
6705142389, 0, -28, -998, -3, 1, -4, 201, 254, 218
6705142389, 0, -28, -998, -3, 1, -4, 201, 254, 218
6705242447, -5, -26, -1002, 0, 2, -6, 201, 251, 215
6705242447, -5, -26, -1002, 0, 2, -6, 201, 251, 215
6705342513, 4, -34, -1000, -2, -1, -4, 201, 255, 218
6705342513, 4, -34, -1000, -2, -1, -4, 201, 255, 218
6705442458, 0, -32, -1003, -2, 0, -3, 202, 248, 211
6705442458, 0, -32, -1003, -2, 0, -3, 202, 248, 211
6705542497, -1, -27, -1003, -3, -3, -3, 202, 251, 214
6705542497, -1, -27, -1003, -3, -3, -3, 202, 251, 214
6705642426, 3, -24, -1001, -3, 1, -3, 202, 251, 215
6705642426, 3, -24, -1001, -3, 1, -3, 202, 251, 215
6705742387, -2, -43, -993, -3, 0, 0, 202, 259, 222
6705742387, -2, -43, -993, -3, 0, 0, 202, 259, 222
6705842430, 0, -34, -1001, -2, 0, -5, 202, 259, 222
6705842430, 0, -34, -1001, -2, 0, -5, 202, 259, 222
6705942378, 0, -31, -999, -3, 0, -4, 203, 259, 222
6705942378, 0, -31, -999, -3, 0, -4, 203, 259, 222
6706042443, -4, -25, -1002, -2, -1, 0, 203, 257, 220
6706042443, -4, -25, -1002, -2, -1, 0, 203, 257, 220
6706142473, -1, -37, -1002, -1, 1, -4, 203, 259, 222
6706142473, -1, -37, -1002, -1, 1, -4, 203, 259, 222
6706242444, -4, -32, -1001, -2, -1, -2, 204, 260, 224
6706242444, -4, -32, -1001, -2, -1, -2, 204, 260, 224
6706342459, -3, -28, -1002, -1, 0, -4, 204, 261, 224
6706342459, -3, -28, -1002, -1, 0, -4, 204, 261, 224
6706442431, -3, -28, -1002, -2, 1, -3, 204, 252, 215
6706442431, -3, -28, -1002, -2, 1, -3, 204, 252, 215
6706542471, -1, -26, -1001, -2, 0, -3, 205, 259, 223
6706542471, -1, -26, -1001, -2, 0, -3, 205, 259, 223
6706642372, -2, -26, -1001, -2, 1, -4, 204, 254, 217
6706642372, -2, -26, -1001, -2, 1, -4, 204, 254, 217
6706742433, -4, -29, -1000, -3, 0, -4, 205, 262, 227
6706742433, -4, -29, -1000, -3, 0, -4, 205, 262, 227
6706842378, -2, -24, -999, -3, 3, -7, 205, 263, 228
6706842378, -2, -24, -999, -3, 3, -7, 205, 263, 228
6706942387, -3, -28, -1001, -4, 3, -8, 205, 263, 229
6706942387, -3, -28, -1001, -4, 3, -8, 205, 263, 229
6707042501, -1, -33, -1001, -4, 3, -7, 205, 262, 228
6707042501, -1, -33, -1001, -4, 3, -7, 205, 262, 228
6707142428, 0, -36, -999, -3, 1, -4, 206, 263, 229
6707142428, 0, -36, -999, -3, 1, -4, 206, 263, 229
6707242496, -1, -37, -1000, -4, 2, -3, 206, 259, 227
6707242496, -1, -37, -1000, -4, 2, -3, 206, 259, 227
6707342504, 0, -33, -995, -3, 0, -2, 206, 255, 223
6707342504, 0, -33, -995, -3, 0, -2, 206, 255, 223
6707442402, -4, -31, -1001, -3, 0, 0, 206, 264, 232
6707442402, -4, -31, -1001, -3, 0, 0, 206, 264, 232
6707542494, -4, -31, -1001, -4, 1, -1, 207, 262, 230
6707542494, -4, -31, -1001, -4, 1, -1, 207, 262, 230
6707642437, -2, -35, -1000, -4, 3, 0, 207, 257, 225
6707642437, -2, -35, -1000, -4, 3, 0, 207, 257, 225
6707742446, -1, -36, -1003, -4, 3, 5, 207, 259, 228
6707742446, -1, -36, -1003, -4, 3, 5, 207, 259, 228
6707842791, -2, -24, -1002, -2, 1, 6, 208, 265, 235
6707842791, -2, -24, -1002, -2, 1, 6, 208, 265, 235
6707947600, -2, -15, -1005, -3, 1, 9, 208, 266, 236
6707947600, -2, -15, -1005, -3, 1, 9, 208, 266, 236
6708042460, -5, -20, -1005, -4, 4, 12, 208, 257, 227
6708042460, -5, -20, -1005, -4, 4, 12, 208, 257, 227
6708142365, -12, -31, -1003, -3, 6, 3, 208, 260, 231
6708142365, -12, -31, -1003, -3, 6, 3, 208, 260, 231
6708242433, -3, -33, -1008, -3, 7, -7, 209, 263, 235
6708242433, -3, -33, -1008, -3, 7, -7, 209, 263, 235
6708342369, -2, -33, -1007, -3, 1, -3, 209, 262, 236
6708342369, -2, -33, -1007, -3, 1, -3, 209, 262, 236
6708442516, 0, -25, -1003, -4, 2, 1, 209, 254, 228
6708442516, 0, -25, -1003, -4, 2, 1, 209, 254, 228
6708542486, 0, -22, -1001, -3, 2, -1, 210, 253, 227
6708542486, 0, -22, -1001, -3, 2, -1, 210, 253, 227
6708642414, -2, -20, -1006, -3, 0, 1, 210, 263, 239
6708642414, -2, -20, -1006, -3, 0, 1, 210, 263, 239
6708742508, -1, -23, -1001, -3, 3, -1, 210, 262, 240
6708742508, -1, -23, -1001, -3, 3, -1, 210, 262, 240
6708842433, -2, -33, -1000, -3, 3, -4, 211, 254, 233
6708842433, -2, -33, -1000, -3, 3, -4, 211, 254, 233
6708942376, 0, -37, -998, -4, 3, -6, 211, 262, 243
6708942376, 0, -37, -998, -4, 3, -6, 211, 262, 243
6709042423, 0, -42, -997, -4, 3, -4, 212, 262, 243
6709042423, 0, -42, -997, -4, 3, -4, 212, 262, 243
6709142487, 0, -40, -997, -4, 0, -1, 212, 254, 236
6709142487, 0, -40, -997, -4, 0, -1, 212, 254, 236
6709242435, -1, -45, -1000, -7, 2, -4, 212, 256, 240
6709242435, -1, -45, -1000, -7, 2, -4, 212, 256, 240
6709342498, 6, -48, -1007, -2, 3, 1, 212, 261, 246
6709342498, 6, -48, -1007, -2, 3, 1, 212, 261, 246
6709442432, 0, -48, -1001, -2, 2, 13, 213, 254, 239
6709442432, 0, -48, -1001, -2, 2, 13, 213, 254, 239
6709542415, -9, -44, -1002, -1, 0, 8, 213, 255, 242
6709542415, -9, -44, -1002, -1, 0, 8, 213, 255, 242
6709642387, -5, -36, -1002, -3, 1, -1, 213, 255, 242
6709642387, -5, -36, -1002, -3, 1, -1, 213, 255, 242
6709742445, 0, -22, -1003, -4, 2, 2, 213, 259, 248
6709742445, 0, -22, -1003, -4, 2, 2, 213, 259, 248
6709842451, -1, -20, -1002, -3, 5, 4, 213, 260, 249
6709842451, -1, -20, -1002, -3, 5, 4, 213, 260, 249
6709942453, -5, -30, -999, -2, 6, -9, 213, 260, 250
6709942453, -5, -30, -999, -2, 6, -9, 213, 260, 250
6710042500, 10, -29, -998, -2, 2, -9, 213, 256, 247
6710042500, 10, -29, -998, -2, 2, -9, 213, 256, 247
6710142372, -1, -27, -1000, -2, 3, -5, 214, 258, 249
6710142372, -1, -27, -1000, -2, 3, -5, 214, 258, 249
6710242393, -11, -26, -1002, -3, 4, -12, 214, 258, 249
6710242393, -11, -26, -1002, -3, 4, -12, 214, 258, 249
6710342449, 0, -14, -1004, -2, 1, -12, 214, 258, 250
6710342449, 0, -14, -1004, -2, 1, -12, 214, 258, 250
6710442386, 0, -19, -1002, -5, 8, -5, 214, 252, 244
6710442386, 0, -19, -1002, -5, 8, -5, 214, 252, 244
6710542487, 0, -49, -995, -6, 6, -15, 214, 255, 248
6710542487, 0, -49, -995, -6, 6, -15, 214, 255, 248
6710642450, 3, -37, -993, -6, 3, -19, 214, 252, 244
6710642450, 3, -37, -993, -6, 3, -19, 214, 252, 244
6710742412, 0, -30, -998, -5, 3, -22, 214, 259, 254
6710742412, 0, -30, -998, -5, 3, -22, 214, 259, 254
6710842382, 3, -27, -999, -4, 1, -17, 214, 260, 254
6710842382, 3, -27, -999, -4, 1, -17, 214, 260, 254
6710942430, -1, -28, -1000, -4, 3, -6, 214, 260, 255
6710942430, -1, -28, -1000, -4, 3, -6, 214, 260, 255
6711042388, -1, -22, -1005, -3, 4, -5, 214, 259, 254
6711042388, -1, -22, -1005, -3, 4, -5, 214, 259, 254
6711142431, 3, -27, -999, -2, 2, -8, 214, 258, 252
6711142431, 3, -27, -999, -2, 2, -8, 214, 258, 252
6711242472, -5, -18, -999, -4, 0, -14, 215, 255, 250
6711242472, -5, -18, -999, -4, 0, -14, 215, 255, 250
6711342451, 6, -17, -999, -4, 0, -14, 215, 258, 254
6711342451, 6, -17, -999, -4, 0, -14, 215, 258, 254
6711442429, -3, -28, -999, -3, 0, -10, 215, 254, 250
6711442429, -3, -28, -999, -3, 0, -10, 215, 254, 250
6711542475, 2, -26, -998, -4, 0, -6, 215, 250, 246
6711542475, 2, -26, -998, -4, 0, -6, 215, 250, 246
6711642383, 0, -39, -997, -5, 2, -6, 215, 251, 248
6711642383, 0, -39, -997, -5, 2, -6, 215, 251, 248
6711742385, 1, -38, -998, -6, -1, -4, 215, 257, 256
6711742385, 1, -38, -998, -6, -1, -4, 215, 257, 256
6711842461, 3, -33, -1001, -5, 0, 0, 216, 257, 257
6711842461, 3, -33, -1001, -5, 0, 0, 216, 257, 257
6711942419, -5, -30, -1003, -4, 2, 8, 216, 256, 257
6711942419, -5, -30, -1003, -4, 2, 8, 216, 256, 257
6712042447, 4, -34, -998, -5, -1, 9, 217, 253, 256
6712042447, 4, -34, -998, -5, -1, 9, 217, 253, 256
6712142450, 5, -45, -1001, -6, 1, 18, 217, 253, 256
6712142450, 5, -45, -1001, -6, 1, 18, 217, 253, 256
6712242376, -6, -38, -1005, -3, -3, 22, 218, 252, 257
6712242376, -6, -38, -1005, -3, -3, 22, 218, 252, 257
6712342389, -1, -29, -996, -4, 3, 10, 218, 252, 257
6712342389, -1, -29, -996, -4, 3, 10, 218, 252, 257
6712442430, -7, -36, -998, -6, 0, 11, 219, 246, 252
6712442430, -7, -36, -998, -6, 0, 11, 219, 246, 252
6712542537, 0, -33, -999, -6, 0, 14, 219, 249, 257
6712542537, 0, -33, -999, -6, 0, 14, 219, 249, 257
6712642415, -3, -37, -1000, -4, -3, 22, 219, 242, 250
6712642415, -3, -37, -1000, -4, -3, 22, 219, 242, 250
6712742464, -4, -28, -1002, -8, -2, 23, 220, 248, 258
6712742464, -4, -28, -1002, -8, -2, 23, 220, 248, 258
6712842414, -6, -30, -1011, -2, 1, 24, 220, 249, 261
6712842414, -6, -30, -1011, -2, 1, 24, 220, 249, 261
6712942391, -16, -30, -1003, -1, 0, 24, 221, 248, 260
6712942391, -16, -30, -1003, -1, 0, 24, 221, 248, 260
6713047855, -2, -37, -991, -5, 3, 12, 221, 249, 262
6713047855, -2, -37, -991, -5, 3, 12, 221, 249, 262
6713142477, 0, -23, -1002, -5, 6, 13, 221, 242, 254
6713142477, 0, -23, -1002, -5, 6, 13, 221, 242, 254
6713242445, -2, -31, -1002, -2, 1, 17, 221, 236, 250
6713242445, -2, -31, -1002, -2, 1, 17, 221, 236, 250
6713342596, -6, -25, -998, -2, 2, 11, 222, 246, 261
6713342596, -6, -25, -998, -2, 2, 11, 222, 246, 261
6713442501, -5, -26, -998, -4, 2, 1, 222, 240, 255
6713442501, -5, -26, -998, -4, 2, 1, 222, 240, 255
6713542432, -4, -28, -1000, -5, 2, 7, 222, 236, 253
6713542432, -4, -28, -1000, -5, 2, 7, 222, 236, 253
6713642415, -1, -29, -998, -5, 6, 5, 223, 237, 255
6713642415, -1, -29, -998, -5, 6, 5, 223, 237, 255
6713742380, 3, -16, -996, -5, 3, 11, 222, 244, 262
6713742380, 3, -16, -996, -5, 3, 11, 222, 244, 262
6713842389, -2, -28, -998, -6, 4, 17, 223, 236, 255
6713842389, -2, -28, -998, -6, 4, 17, 223, 236, 255
6713942488, -4, -28, -998, -5, 2, 11, 223, 243, 263
6713942488, -4, -28, -998, -5, 2, 11, 223, 243, 263
6714042452, -3, -24, -998, -3, 5, 9, 223, 243, 263
6714042452, -3, -24, -998, -3, 5, 9, 223, 243, 263
6714142490, -4, -27, -1000, -4, 2, 10, 223, 241, 262
6714142490, -4, -27, -1000, -4, 2, 10, 223, 241, 262
6714242461, -2, -27, -999, -3, 2, 10, 224, 240, 262
6714242461, -2, -27, -999, -3, 2, 10, 224, 240, 262
6714342407, -10, -32, -1002, -4, 1, 2, 224, 239, 263
6714342407, -10, -32, -1002, -4, 1, 2, 224, 239, 263
6714442448, -5, -30, -995, -4, 3, -10, 224, 239, 262
6714442448, -5, -30, -995, -4, 3, -10, 224, 239, 262
6714542480, -5, -29, -1002, -3, 1, -15, 225, 234, 258
6714542480, -5, -29, -1002, -3, 1, -15, 225, 234, 258
6714642434, -3, -26, -1003, -3, 0, -15, 225, 228, 252
6714642434, -3, -26, -1003, -3, 0, -15, 225, 228, 252
6714742432, 0, -28, -1001, -5, 0, -15, 225, 239, 264
6714742432, 0, -28, -1001, -5, 0, -15, 225, 239, 264
6714842477, -3, -28, -1001, -3, 0, -8, 225, 240, 264
6714842477, -3, -28, -1001, -3, 0, -8, 225, 240, 264
6714942391, -4, -29, -995, -5, 0, -8, 225, 240, 265
6714942391, -4, -29, -995, -5, 0, -8, 225, 240, 265
6715042401, -9, -25, -998, -4, 1, -11, 226, 240, 265
6715042401, -9, -25, -998, -4, 1, -11, 226, 240, 265
6715142454, -2, -35, -996, -4, 0, -13, 226, 236, 261
6715142454, -2, -35, -996, -4, 0, -13, 226, 236, 261
6715242383, 0, -34, -1001, -6, 2, -22, 226, 239, 264
6715242383, 0, -34, -1001, -6, 2, -22, 226, 239, 264
6715342491, 1, -36, -1004, -5, -3, -25, 227, 236, 261
6715342491, 1, -36, -1004, -5, -3, -25, 227, 236, 261
6715442564, 0, -33, -997, -3, 2, -20, 227, 234, 259
6715442564, 0, -33, -997, -3, 2, -20, 227, 234, 259
6715542514, 1, -30, -992, -9, -2, -2, 227, 238, 263
6715542514, 1, -30, -992, -9, -2, -2, 227, 238, 263
6715642396, -9, -30, -999, -5, 5, 3, 227, 230, 255
6715642396, -9, -30, -999, -5, 5, 3, 227, 230, 255
6715742446, 0, -18, -999, -6, 1, -5, 228, 238, 264
6715742446, 0, -18, -999, -6, 1, -5, 228, 238, 264
6715842403, 8, -33, -994, -6, 6, -3, 228, 240, 266
6715842403, 8, -33, -994, -6, 6, -3, 228, 240, 266
6715942466, -11, -39, -999, 0, -4, -3, 228, 240, 265
6715942466, -11, -39, -999, 0, -4, -3, 228, 240, 265
6716042503, -3, -26, -1003, -3, 0, -3, 229, 240, 265
6716042503, -3, -26, -1003, -3, 0, -3, 229, 240, 265
6716142415, -8, -22, -1005, -1, 5, 1, 229, 238, 263
6716142415, -8, -22, -1005, -1, 5, 1, 229, 238, 263
6716242446, 1, -28, -998, -5, 3, 3, 229, 239, 264
6716242446, 1, -28, -998, -5, 3, 3, 229, 239, 264
6716342441, -5, -40, -999, -2, 3, -3, 230, 238, 263
6716342441, -5, -40, -999, -2, 3, -3, 230, 238, 263
6716442443, 0, -27, -1004, -3, 1, -4, 230, 235, 260
6716442443, 0, -27, -1004, -3, 1, -4, 230, 235, 260
6716542440, 0, -31, -1000, -4, 2, -2, 231, 236, 261
6716542440, 0, -31, -1000, -4, 2, -2, 231, 236, 261
6716642500, -6, -29, -1000, -3, 1, -3, 231, 227, 252
6716642500, -6, -29, -1000, -3, 1, -3, 231, 227, 252
6716742449, -4, -34, -999, -3, 3, -5, 231, 239, 264
6716742449, -4, -34, -999, -3, 3, -5, 231, 239, 264
6716842452, -2, -28, -1000, -2, 4, -4, 231, 239, 264
6716842452, -2, -28, -1000, -2, 4, -4, 231, 239, 264
6716942496, -1, -27, -999, -2, 2, -8, 231, 239, 264
6716942496, -1, -27, -999, -2, 2, -8, 231, 239, 264
6717042399, -1, -27, -998, -3, 2, -7, 232, 239, 264
6717042399, -1, -27, -998, -3, 2, -7, 232, 239, 264
6717142394, -4, -29, -1000, -5, 0, -5, 232, 239, 263
6717142394, -4, -29, -1000, -5, 0, -5, 232, 239, 263
6717242468, -2, -29, -1001, -4, 5, -10, 232, 240, 264
6717242468, -2, -29, -1001, -4, 5, -10, 232, 240, 264
6717342501, 1, -21, -1004, -5, 4, -11, 232, 237, 261
6717342501, 1, -21, -1004, -5, 4, -11, 232, 237, 261
6717442600, -3, -28, -1004, -4, 3, -3, 233, 238, 261
6717442600, -3, -28, -1004, -4, 3, -3, 233, 238, 261
6717542626, 5, -33, -998, -5, 4, -4, 233, 233, 256
6717542626, 5, -33, -998, -5, 4, -4, 233, 233, 256
6717642579, 1, -30, -998, -4, 0, -1, 234, 230, 252
6717642579, 1, -30, -998, -4, 0, -1, 234, 230, 252
6717742416, -6, -29, -1001, -3, 0, -1, 233, 238, 261
6717742416, -6, -29, -1001, -3, 0, -1, 233, 238, 261
6717842458, -6, -27, -996, -6, 1, -4, 234, 240, 263
6717842458, -6, -27, -996, -6, 1, -4, 234, 240, 263
6717942377, -10, -30, -1005, -3, 1, -7, 235, 241, 262
6717942377, -10, -30, -1005, -3, 1, -7, 235, 241, 262
6718042460, -2, -27, -997, -4, 1, -5, 235, 241, 263
6718042460, -2, -27, -997, -4, 1, -5, 235, 241, 263
6718147912, 2, -25, -999, -1, 2, -11, 235, 239, 260
6718147912, 2, -25, -999, -1, 2, -11, 235, 239, 260
6718242776, -3, -24, -1004, -2, 1, -6, 235, 243, 263
6718242776, -3, -24, -1004, -2, 1, -6, 235, 243, 263
6718342396, -2, -35, -997, -6, 0, 0, 236, 237, 255
6718342396, -2, -35, -997, -6, 0, 0, 236, 237, 255
6718442430, 0, -31, -996, -4, 0, -1, 237, 238, 256
6718442430, 0, -31, -996, -4, 0, -1, 237, 238, 256
6718542445, -2, -31, -997, -3, 1, 4, 237, 235, 254
6718542445, -2, -31, -997, -3, 1, 4, 237, 235, 254
6718642391, -4, -15, -1000, -3, 0, 10, 238, 232, 250
6718642391, -4, -15, -1000, -3, 0, 10, 238, 232, 250
6718742503, -4, -27, -1004, 0, 3, 15, 238, 241, 259
6718742503, -4, -27, -1004, 0, 3, 15, 238, 241, 259
6718842537, -1, -23, -998, -3, 1, 18, 239, 242, 261
6718842537, -1, -23, -998, -3, 1, 18, 239, 242, 261
6718942430, -4, -30, -998, -4, 5, 19, 239, 234, 252
6718942430, -4, -30, -998, -4, 5, 19, 239, 234, 252
6719042670, -6, -26, -994, -6, 0, 20, 240, 241, 259
6719042670, -6, -26, -994, -6, 0, 20, 240, 241, 259
6719142448, 0, -21, -1001, -3, 7, 18, 240, 239, 258
6719142448, 0, -21, -1001, -3, 7, 18, 240, 239, 258
6719242437, -1, -20, -1001, -3, 2, 16, 241, 231, 249
6719242437, -1, -20, -1001, -3, 2, 16, 241, 231, 249
6719342507, -2, -23, -995, -2, 1, 17, 242, 234, 252
6719342507, -2, -23, -995, -2, 1, 17, 242, 234, 252
6719442437, -3, -37, -1001, -4, 1, 10, 242, 238, 256
6719442437, -3, -37, -1001, -4, 1, 10, 242, 238, 256
6719542446, -4, -28, -1000, -4, 0, 3, 243, 241, 259
6719542446, -4, -28, -1000, -4, 0, 3, 243, 241, 259
6719642504, -5, -32, -996, -3, 1, -1, 244, 232, 249
6719642504, -5, -32, -996, -3, 1, -1, 244, 232, 249
6719742377, -14, -32, -998, -1, 4, -5, 244, 240, 256
6719742377, -14, -32, -998, -1, 4, -5, 244, 240, 256
6719842388, -8, -29, -1004, 0, 2, -6, 244, 240, 256
6719842388, -8, -29, -1004, 0, 2, -6, 244, 240, 256
6719942451, 0, -11, -992, -2, 5, -11, 245, 244, 258
6719942451, 0, -11, -992, -2, 5, -11, 245, 244, 258
6720042516, -2, -22, -992, -2, 2, -16, 245, 245, 258
6720042516, -2, -22, -992, -2, 2, -16, 245, 245, 258
6720142479, -5, -29, -995, -3, 3, -20, 246, 245, 257
6720142479, -5, -29, -995, -3, 3, -20, 246, 245, 257
6720242563, 2, -33, -1000, -4, 3, -21, 246, 246, 256
6720242563, 2, -33, -1000, -4, 3, -21, 246, 246, 256
6720342434, 1, -31, -1001, -4, 2, -23, 247, 242, 251
6720342434, 1, -31, -1001, -4, 2, -23, 247, 242, 251
6720442444, -1, -30, -1000, -4, 0, -21, 247, 243, 250
6720442444, -1, -30, -1000, -4, 0, -21, 247, 243, 250
6720542455, -5, -26, -1005, -2, 0, -22, 248, 239, 245
6720542455, -5, -26, -1005, -2, 0, -22, 248, 239, 245
6720642427, 0, -35, -1001, -2, 2, -21, 248, 251, 256
6720642427, 0, -35, -1001, -2, 2, -21, 248, 251, 256
6720742463, 2, -31, -1002, -4, 2, -18, 249, 252, 256
6720742463, 2, -31, -1002, -4, 2, -18, 249, 252, 256
6720842501, 0, -36, -998, -4, 0, -12, 249, 254, 256
6720842501, 0, -36, -998, -4, 0, -12, 249, 254, 256
6720942453, 2, -30, -999, -4, 0, -11, 250, 255, 256
6720942453, 2, -30, -999, -4, 0, -11, 250, 255, 256
6721042698, -4, -30, -1003, -6, 2, -13, 250, 255, 256
6721042698, -4, -30, -1003, -6, 2, -13, 250, 255, 256
6721142453, -2, -35, -1001, -3, 3, -16, 250, 251, 249
6721142453, -2, -35, -1001, -3, 3, -16, 250, 251, 249
6721242472, -3, -18, -1000, -3, -3, -19, 251, 253, 249
6721242472, -3, -18, -1000, -3, -3, -19, 251, 253, 249
6721342493, 0, -32, -1003, 0, 2, -17, 252, 247, 241
6721342493, 0, -32, -1003, 0, 2, -17, 252, 247, 241
6721442600, 1, -26, -1001, -5, 3, -17, 252, 248, 242
6721442600, 1, -26, -1001, -5, 3, -17, 252, 248, 242
6721542453, -6, -41, -996, -4, 2, -10, 253, 245, 236
6721542453, -6, -41, -996, -4, 2, -10, 253, 245, 236
6721642422, 5, -26, -999, -4, 6, -20, 252, 258, 248
6721642422, 5, -26, -999, -4, 6, -20, 252, 258, 248
6721742481, -3, -31, -990, -7, 7, -19, 253, 258, 249
6721742481, -3, -31, -990, -7, 7, -19, 253, 258, 249
6721842433, -1, -21, -995, -6, 0, -7, 254, 260, 248
6721842433, -1, -21, -995, -6, 0, -7, 254, 260, 248
6721942476, -7, -17, -998, -2, 11, -3, 254, 261, 248
6721942476, -7, -17, -998, -2, 11, -3, 254, 261, 248
6722042781, -1, -27, -997, -3, 0, 1, 255, 262, 248
6722042781, -1, -27, -997, -3, 0, 1, 255, 262, 248
6722142463, 2, -35, -999, -1, 3, 10, 256, 261, 244
6722142463, 2, -35, -999, -1, 3, 10, 256, 261, 244
6722242494, -3, -36, -1002, 0, 4, 11, 257, 265, 247
6722242494, -3, -36, -1002, 0, 4, 11, 257, 265, 247
6722342460, -3, -41, -999, -1, 5, 3, 258, 258, 240
6722342460, -3, -41, -999, -1, 5, 3, 258, 258, 240
6722442476, -3, -27, -1001, -1, 2, 5, 258, 263, 244
6722442476, -3, -27, -1001, -1, 2, 5, 258, 263, 244
6722542497, -2, -32, -994, -3, 4, 0, 259, 256, 235
6722542497, -2, -32, -994, -3, 4, 0, 259, 256, 235
6722642559, 1, -32, -998, -1, 1, -6, 259, 267, 246
6722642559, 1, -32, -998, -1, 1, -6, 259, 267, 246
6722742503, 2, -22, -1000, -2, 0, 5, 260, 268, 246
6722742503, 2, -22, -1000, -2, 0, 5, 260, 268, 246
6722842409, -4, -33, -1000, -4, 5, 6, 261, 269, 246
6722842409, -4, -33, -1000, -4, 5, 6, 261, 269, 246
6722942476, -2, -17, -1003, -2, 0, 4, 261, 270, 247
6722942476, -2, -17, -1003, -2, 0, 4, 261, 270, 247
6723042601, 2, -16, -1000, -2, 2, 7, 262, 271, 247
6723042601, 2, -16, -1000, -2, 2, 7, 262, 271, 247
6723142515, -5, -22, -996, -3, 1, 11, 263, 272, 246
6723142515, -5, -22, -996, -3, 1, 11, 263, 272, 246
6723242690, -2, -26, -1003, -3, 2, 16, 264, 274, 246
6723242690, -2, -26, -1003, -3, 2, 16, 264, 274, 246
6723342905, -3, -34, -1002, -1, 5, 20, 265, 269, 240
6723342905, -3, -34, -1002, -1, 5, 20, 265, 269, 240
6723442586, -5, -38, -994, -2, 4, 12, 266, 269, 238
6723442586, -5, -38, -994, -2, 4, 12, 266, 269, 238
6723542472, 0, -39, -1006, -1, 3, 0, 268, 260, 229
6723542472, 0, -39, -1006, -1, 3, 0, 268, 260, 229
6723642411, 9, -35, -1002, -1, 4, 0, 269, 277, 246
6723642411, 9, -35, -1002, -1, 4, 0, 269, 277, 246
6723742488, -7, -33, -999, -1, 2, -1, 270, 280, 247
6723742488, -7, -33, -999, -1, 2, -1, 270, 280, 247
6723842483, -1, -31, -994, -4, 2, -6, 271, 281, 245
6723842483, -1, -31, -994, -4, 2, -6, 271, 281, 245
6723942447, 0, -31, -998, -2, 2, -6, 272, 278, 240
6723942447, 0, -31, -998, -2, 2, -6, 272, 278, 240
6724042764, -2, -36, -1001, -1, 2, -2, 273, 286, 247
6724042764, -2, -36, -1001, -1, 2, -2, 273, 286, 247
6724142520, 0, -35, -1001, -2, 1, -4, 274, 285, 244
6724142520, 0, -35, -1001, -2, 1, -4, 274, 285, 244
6724242532, -2, -32, -1000, -2, 1, -3, 275, 289, 247
6724242532, -2, -32, -1000, -2, 1, -3, 275, 289, 247
6724342453, -8, -27, -1003, -3, 4, -7, 276, 288, 244
6724342453, -8, -27, -1003, -3, 4, -7, 276, 288, 244
6724442556, -1, -35, -997, -4, 2, -10, 277, 287, 240
6724442556, -1, -35, -997, -4, 2, -10, 277, 287, 240
6724542463, 0, -28, -998, -3, 0, -7, 278, 286, 236
6724542463, 0, -28, -998, -3, 0, -7, 278, 286, 236
6724642459, -2, -32, -1000, -2, 1, -10, 278, 298, 249
6724642459, -2, -32, -1000, -2, 1, -10, 278, 298, 249
6724742584, -2, -32, -1001, -2, 0, -10, 280, 301, 249
6724742584, -2, -32, -1001, -2, 0, -10, 280, 301, 249
6724842461, -2, -20, -1001, -4, 4, -10, 280, 304, 249
6724842461, -2, -20, -1001, -4, 4, -10, 280, 304, 249
6724942445, -9, -48, -995, -2, 2, -12, 282, 306, 250
6724942445, -9, -48, -995, -2, 2, -12, 282, 306, 250
6725042496, -4, -21, -1001, -3, 1, -12, 282, 308, 249
6725042496, -4, -21, -1001, -3, 1, -12, 282, 308, 249
6725142475, 0, -34, -991, -3, 3, -20, 284, 310, 249
6725142475, 0, -34, -991, -3, 3, -20, 284, 310, 249
6725242619, 2, -25, -997, -4, -1, -19, 285, 313, 250
6725242619, 2, -25, -997, -4, -1, -19, 285, 313, 250
6725342560, 0, -38, -1004, -2, 2, -17, 286, 313, 247
6725342560, 0, -38, -1004, -2, 2, -17, 286, 313, 247
6725442568, 0, -32, -1003, -1, 2, -10, 287, 320, 250
6725442568, 0, -32, -1003, -1, 2, -10, 287, 320, 250
6725542519, 0, -29, -996, -2, 1, -10, 289, 309, 236
6725542519, 0, -29, -996, -2, 1, -10, 289, 309, 236
6725647538, 0, -41, -991, -5, 0, -11, 289, 321, 247
6725647538, 0, -41, -991, -5, 0, -11, 289, 321, 247
6725742455, -2, -40, -999, -2, 0, -6, 290, 330, 254
6725742455, -2, -40, -999, -2, 0, -6, 290, 330, 254
6725842377, 4, -43, -995, -4, 0, -8, 291, 333, 255
6725842377, 4, -43, -995, -4, 0, -8, 291, 333, 255
6725942547, -3, -44, -1000, -2, 0, -2, 292, 336, 256
6725942547, -3, -44, -1000, -2, 0, -2, 292, 336, 256
6726042695, 0, -42, -996, -5, -1, -4, 293, 337, 256
6726042695, 0, -42, -996, -5, -1, -4, 293, 337, 256
6726142532, -2, -52, -1004, -3, 3, -2, 294, 341, 256
6726142532, -2, -52, -1004, -3, 3, -2, 294, 341, 256
6726242539, 1, -44, -1003, -3, 0, 0, 295, 342, 256
6726242539, 1, -44, -1003, -3, 0, 0, 295, 342, 256
6726442398, -3, -31, -1003, -2, 0, 3, 297, 344, 257
6726442398, -3, -31, -1003, -2, 0, 3, 297, 344, 257
6726542456, -2, -40, -1003, -2, 4, 1, 297, 348, 259
6726542456, -2, -40, -1003, -2, 4, 1, 297, 348, 259
6726642459, -1, -27, -999, -3, 5, -4, 298, 343, 253
6726642459, -1, -27, -999, -3, 5, -4, 298, 343, 253
6726742488, -7, -27, -997, -1, -2, 0, 298, 348, 256
6726742488, -7, -27, -997, -1, -2, 0, 298, 348, 256
6726842729, -2, -24, -996, -4, 3, -4, 299, 354, 261
6726842729, -2, -24, -996, -4, 3, -4, 299, 354, 261
6726942389, -1, -30, -1002, -3, 5, -1, 300, 355, 262
6726942389, -1, -30, -1002, -3, 5, -1, 300, 355, 262
6727042730, 2, -33, -997, -1, 4, 0, 300, 358, 263
6727042730, 2, -33, -997, -1, 4, 0, 300, 358, 263
6727142486, 1, -35, -997, -5, 4, 1, 301, 357, 261
6727142486, 1, -35, -997, -5, 4, 1, 301, 357, 261
6727242496, -7, -32, -998, -4, 3, 0, 302, 360, 263
6727242496, -7, -32, -998, -4, 3, 0, 302, 360, 263
6727342470, -1, -29, -1008, -3, 4, -4, 303, 355, 257
6727342470, -1, -29, -1008, -3, 4, -4, 303, 355, 257
6727442571, 2, -39, -999, -3, 2, -3, 303, 363, 263
6727442571, 2, -39, -999, -3, 2, -3, 303, 363, 263
6727542511, 1, -29, -1000, -2, 1, -1, 304, 360, 257
6727542511, 1, -29, -1000, -2, 1, -1, 304, 360, 257
6727642422, -2, -29, -998, -4, 6, 2, 304, 372, 269
6727642422, -2, -29, -998, -4, 6, 2, 304, 372, 269
6727742505, 1, -47, -1000, -3, 5, 1, 306, 376, 271
6727742505, 1, -47, -1000, -3, 5, 1, 306, 376, 271
6727842412, 5, -33, -1005, -7, 5, -3, 306, 379, 273
6727842412, 5, -33, -1005, -7, 5, -3, 306, 379, 273
6727942491, 0, -50, -1000, -3, 6, -6, 307, 382, 275
6727942491, 0, -50, -1000, -3, 6, -6, 307, 382, 275
6728042941, 4, -34, -1001, -5, 0, -9, 308, 385, 276
6728042941, 4, -34, -1001, -5, 0, -9, 308, 385, 276
6728142451, -4, -34, -1001, -4, 3, -4, 309, 386, 275
6728142451, -4, -34, -1001, -4, 3, -4, 309, 386, 275
6728242527, -3, -43, -1001, -4, 1, -6, 309, 391, 279
6728242527, -3, -43, -1001, -4, 1, -6, 309, 391, 279
6728342559, 5, -36, -995, -7, 3, -5, 310, 392, 278
6728342559, 5, -36, -995, -7, 3, -5, 310, 392, 278
6728447890, -3, -32, -1000, -5, 1, -3, 310, 390, 274
6728447890, -3, -32, -1000, -5, 1, -3, 310, 390, 274
6728542480, 4, -33, -998, -4, 0, -1, 311, 392, 275
6728542480, 4, -33, -998, -4, 0, -1, 311, 392, 275
6728642614, -2, -41, -998, -3, 1, -3, 312, 387, 269
6728642614, -2, -41, -998, -3, 1, -3, 312, 387, 269
6728742513, 2, -43, -997, -6, 0, -5, 312, 406, 288
6728742513, 2, -43, -997, -6, 0, -5, 312, 406, 288
6728842463, -3, -37, -1000, -6, -1, -2, 313, 409, 290
6728842463, -3, -37, -1000, -6, -1, -2, 313, 409, 290
6728942617, -4, -32, -1001, -8, 0, -6, 314, 413, 292
6728942617, -4, -32, -1001, -8, 0, -6, 314, 413, 292
6729042411, 9, -31, -994, -8, 0, 0, 315, 407, 286
6729042411, 9, -31, -994, -8, 0, 0, 315, 407, 286
6729142469, -2, -33, -995, -7, 3, 4, 315, 418, 296
6729142469, -2, -33, -995, -7, 3, 4, 315, 418, 296
6729242542, -1, -34, -990, -9, -1, 1, 316, 417, 294
6729242542, -1, -34, -990, -9, -1, 1, 316, 417, 294
6729342501, -8, -34, -998, -7, 4, 3, 318, 414, 290
6729342501, -8, -34, -998, -7, 4, 3, 318, 414, 290
6729442551, -1, -31, -997, -5, 3, 2, 318, 419, 295
6729442551, -1, -31, -997, -5, 3, 2, 318, 419, 295
6729542575, 2, -27, -995, -5, 3, 7, 319, 416, 292
6729542575, 2, -27, -995, -5, 3, 7, 319, 416, 292
6729642392, -5, -48, -999, -4, 4, 6, 319, 429, 306
6729642392, -5, -48, -999, -4, 4, 6, 319, 429, 306
6729742379, -7, -36, -1003, -2, 3, 1, 320, 432, 308
6729742379, -7, -36, -1003, -2, 3, 1, 320, 432, 308
6729842432, 3, -36, -1004, -5, 5, -1, 320, 432, 309
6729842432, 3, -36, -1004, -5, 5, -1, 320, 432, 309
6729942383, 1, -34, -1002, -3, 1, 5, 320, 435, 312
6729942383, 1, -34, -1002, -3, 1, 5, 320, 435, 312
6730042551, -10, -37, -1001, -2, 0, 9, 321, 437, 313
6730042551, -10, -37, -1001, -2, 0, 9, 321, 437, 313
6730142472, 7, -32, -1005, -5, 3, -3, 321, 436, 312
6730142472, 7, -32, -1005, -5, 3, -3, 321, 436, 312
6730242415, 1, -38, -1001, -5, 4, -1, 321, 439, 315
6730242415, 1, -38, -1001, -5, 4, -1, 321, 439, 315
6730342447, -3, -33, -1004, -3, 1, 0, 322, 438, 313
6730342447, -3, -33, -1004, -3, 1, 0, 322, 438, 313
6730442427, 2, -32, -1006, -6, 0, -5, 322, 439, 314
6730442427, 2, -32, -1006, -6, 0, -5, 322, 439, 314
6730542379, -2, -32, -998, -6, 3, -12, 323, 438, 313
6730542379, -2, -32, -998, -6, 3, -12, 323, 438, 313
6730642358, 1, -19, -993, -7, 1, -5, 322, 445, 319
6730642358, 1, -19, -993, -7, 1, -5, 322, 445, 319
6730742454, -3, -28, -998, -4, 2, 1, 322, 449, 324
6730742454, -3, -28, -998, -4, 2, 1, 322, 449, 324
6730842415, 3, -25, -996, -5, 2, -1, 323, 452, 327
6730842415, 3, -25, -996, -5, 2, -1, 323, 452, 327
6730942404, -2, -25, -1001, -4, 3, 1, 323, 454, 329
6730942404, -2, -25, -1001, -4, 3, 1, 323, 454, 329
6731042488, -2, -29, -1001, -7, 2, -4, 323, 456, 331
6731042488, -2, -29, -1001, -7, 2, -4, 323, 456, 331
6731142382, -4, -24, -1002, -6, 0, -3, 324, 453, 329
6731142382, -4, -24, -1002, -6, 0, -3, 324, 453, 329
6731242485, 0, -15, -1012, -8, 0, 4, 324, 460, 337
6731242485, 0, -15, -1012, -8, 0, 4, 324, 460, 337
6731342437, 2, -33, -1001, -7, 1, 1, 325, 460, 337
6731342437, 2, -33, -1001, -7, 1, 1, 325, 460, 337
6731442473, 2, -25, -1000, -6, -4, -2, 325, 464, 342
6731442473, 2, -25, -1000, -6, -4, -2, 325, 464, 342
6731542412, -9, -38, -1001, -8, 0, 0, 326, 454, 330
6731542412, -9, -38, -1001, -8, 0, 0, 326, 454, 330
6731642477, 1, -30, -1009, -5, 2, -5, 325, 467, 346
6731642477, 1, -30, -1009, -5, 2, -5, 325, 467, 346
6731742366, 9, -25, -1002, -5, 1, -2, 325, 470, 350
6731742366, 9, -25, -1002, -5, 1, -2, 325, 470, 350
6731842384, 5, -26, -1004, -5, -2, 3, 325, 475, 356
6731842384, 5, -26, -1004, -5, -2, 3, 325, 475, 356
6731942431, -4, -42, -997, -6, 0, 0, 325, 477, 360
6731942431, -4, -42, -997, -6, 0, 0, 325, 477, 360
6732042489, 0, -25, -995, -9, -4, 3, 325, 479, 362
6732042489, 0, -25, -995, -9, -4, 3, 325, 479, 362
6732142445, -1, -21, -999, -8, 4, 9, 325, 480, 363
6732142445, -1, -21, -999, -8, 4, 9, 325, 480, 363
6732242538, -7, -32, -997, -6, 2, 9, 326, 482, 368
6732242538, -7, -32, -997, -6, 2, 9, 326, 482, 368
6732342503, 8, -36, -999, -5, 2, 12, 326, 480, 367
6732342503, 8, -36, -999, -5, 2, 12, 326, 480, 367
6732442400, 0, -42, -999, -4, 1, 11, 325, 479, 367
6732442400, 0, -42, -999, -4, 1, 11, 325, 479, 367
6732542444, -1, -47, -999, -2, -1, 6, 325, 486, 377
6732542444, -1, -47, -999, -2, -1, 6, 325, 486, 377
6732642466, 1, -25, -1003, -5, 0, 3, 325, 484, 376
6732642466, 1, -25, -1003, -5, 0, 3, 325, 484, 376
6732742418, -3, -33, -1007, -4, 3, 3, 324, 481, 374
6732742418, -3, -33, -1007, -4, 3, 3, 324, 481, 374
6732842520, 3, -39, -1000, -3, 0, 8, 324, 488, 382
6732842520, 3, -39, -1000, -3, 0, 8, 324, 488, 382
6732942449, -4, -32, -995, -4, 6, 3, 324, 490, 386
6732942449, -4, -32, -995, -4, 6, 3, 324, 490, 386
6733042485, -3, -39, -994, -2, 1, 2, 323, 491, 388
6733042485, -3, -39, -994, -2, 1, 2, 323, 491, 388
6733142420, -3, -29, -1003, -4, 0, -3, 323, 489, 387
6733142420, -3, -29, -1003, -4, 0, -3, 323, 489, 387
6733242375, -3, -26, -999, -2, -1, -5, 322, 491, 389
6733242375, -3, -26, -999, -2, -1, -5, 322, 491, 389
6733342398, -4, -20, -1003, -2, 1, 1, 321, 489, 387
6733342398, -4, -20, -1003, -2, 1, 1, 321, 489, 387
6733442465, -1, -28, -1005, -3, 5, 0, 321, 492, 391
6733442465, -1, -28, -1005, -3, 5, 0, 321, 492, 391
6733542798, 2, -23, -1001, -2, 6, -3, 320, 485, 385
6733542798, 2, -23, -1001, -2, 6, -3, 320, 485, 385
6733642474, 6, -28, -1004, -3, -1, 0, 319, 488, 387
6733642474, 6, -28, -1004, -3, -1, 0, 319, 488, 387
6733742462, 4, -27, -1004, -4, 1, 0, 319, 483, 383
6733742462, 4, -27, -1004, -4, 1, 0, 319, 483, 383
6733842375, -2, -35, -1000, -2, -2, 4, 318, 496, 398
6733842375, -2, -35, -1000, -2, -2, 4, 318, 496, 398
6733942380, -6, -24, -996, -3, 2, 6, 317, 497, 400
6733942380, -6, -24, -996, -3, 2, 6, 317, 497, 400
6734042434, -5, -23, -996, -3, 3, -2, 316, 491, 394
6734042434, -5, -23, -996, -3, 3, -2, 316, 491, 394
6734142395, -4, -28, -998, -3, 4, -6, 316, 496, 400
6734142395, -4, -28, -998, -3, 4, -6, 316, 496, 400
6734242411, -1, -22, -1001, -3, 2, -5, 315, 498, 403
6734242411, -1, -22, -1001, -3, 2, -5, 315, 498, 403
6734342579, 3, -22, -1001, -2, 4, -3, 313, 495, 400
6734342579, 3, -22, -1001, -2, 4, -3, 313, 495, 400
6734442432, -1, -27, -1000, -2, 2, -3, 312, 492, 398
6734442432, -1, -27, -1000, -2, 2, -3, 312, 492, 398
6734542383, 5, -35, -1001, -3, 0, -4, 311, 500, 406
6734542383, 5, -35, -1001, -3, 0, -4, 311, 500, 406
6734642468, 4, -28, -1002, -2, 0, -8, 309, 496, 403
6734642468, 4, -28, -1002, -2, 0, -8, 309, 496, 403
6734742375, 0, -21, -1001, -2, -1, -3, 308, 497, 404
6734742375, 0, -21, -1001, -2, -1, -3, 308, 497, 404
6734842423, -1, -24, -997, -4, 0, 0, 306, 504, 411
6734842423, -1, -24, -997, -4, 0, 0, 306, 504, 411
6734942475, -2, -18, -995, -4, 0, -2, 305, 505, 413
6734942475, -2, -18, -995, -4, 0, -2, 305, 505, 413
6735042427, 3, -28, -993, -6, 3, -2, 303, 505, 415
6735042427, 3, -28, -993, -6, 3, -2, 303, 505, 415
6735142403, -1, -33, -1001, -5, 3, -2, 302, 506, 415
6735142403, -1, -33, -1001, -5, 3, -2, 302, 506, 415
6735242428, -3, -34, -998, -4, 6, -8, 300, 507, 417
6735242428, -3, -34, -998, -4, 6, -8, 300, 507, 417
6735342379, 2, -30, -1002, -3, 3, -10, 298, 505, 416
6735342379, 2, -30, -1002, -3, 3, -10, 298, 505, 416
6735442394, 4, -41, -993, -4, 2, 2, 296, 502, 412
6735442394, 4, -41, -993, -4, 2, 2, 296, 502, 412
6735542582, -2, -26, -1003, -3, 0, 5, 295, 505, 416
6735542582, -2, -26, -1003, -3, 0, 5, 295, 505, 416
6735642431, 0, -38, -1001, -3, 5, -1, 294, 507, 419
6735642431, 0, -38, -1001, -3, 5, -1, 294, 507, 419
6735742446, 2, -33, -998, -3, 1, -1, 292, 512, 425
6735742446, 2, -33, -998, -3, 1, -1, 292, 512, 425
6735842447, 0, -32, -999, -4, 1, -3, 291, 513, 426
6735842447, 0, -32, -999, -4, 1, -3, 291, 513, 426
6735942398, 4, -29, -1001, -2, 1, -2, 290, 514, 427
6735942398, 4, -29, -1001, -2, 1, -2, 290, 514, 427
6736042407, -7, -27, -996, -1, 0, 0, 288, 515, 429
6736042407, -7, -27, -996, -1, 0, 0, 288, 515, 429
6736142452, 5, -20, -999, -1, 3, -5, 287, 516, 429
6736142452, 5, -20, -999, -1, 3, -5, 287, 516, 429
6736242416, -5, -24, -1000, 0, 3, 0, 286, 517, 430
6736242416, -5, -24, -1000, 0, 3, 0, 286, 517, 430
6736342432, -1, -33, -1000, -1, 1, -5, 285, 516, 429
6736342432, -1, -33, -1000, -1, 1, -5, 285, 516, 429
6736442466, -3, -31, -997, 0, 2, -1, 283, 512, 424
6736442466, -3, -31, -997, 0, 2, -1, 283, 512, 424
6736542428, -6, -32, -1002, -2, 0, -2, 282, 514, 427
6736542428, -6, -32, -1002, -2, 0, -2, 282, 514, 427
6736642378, -1, -34, -1003, -3, 2, -4, 280, 518, 432
6736642378, -1, -34, -1003, -3, 2, -4, 280, 518, 432
6736742428, 2, -25, -1001, -3, 0, -2, 279, 522, 437
6736742428, 2, -25, -1001, -3, 0, -2, 279, 522, 437
6736842380, -1, -34, -1002, -3, 0, -2, 277, 524, 439
6736842380, -1, -34, -1002, -3, 0, -2, 277, 524, 439
6736942421, 1, -44, -1003, -4, -1, 0, 276, 524, 441
6736942421, 1, -44, -1003, -4, -1, 0, 276, 524, 441
6737042475, -1, -43, -1002, -7, -3, -1, 275, 526, 442
6737042475, -1, -43, -1002, -7, -3, -1, 275, 526, 442
6737142413, 0, -33, -1004, -4, 0, -5, 274, 526, 443
6737142413, 0, -33, -1004, -4, 0, -5, 274, 526, 443
6737242387, -7, -25, -1003, -3, 0, -1, 272, 527, 445
6737242387, -7, -25, -1003, -3, 0, -1, 272, 527, 445
6737342427, -3, -35, -1000, -6, 5, -5, 271, 526, 444
6737342427, -3, -35, -1000, -6, 5, -5, 271, 526, 444
6737442375, -2, -31, -1001, -5, 1, -4, 270, 522, 441
6737442375, -2, -31, -1001, -5, 1, -4, 270, 522, 441
6737542489, -3, -31, -1006, -3, 1, -2, 269, 526, 444
6737542489, -3, -31, -1006, -3, 1, -2, 269, 526, 444
6737642453, -2, -29, -1007, -2, 0, 0, 268, 527, 446
6737642453, -2, -29, -1007, -2, 0, 0, 268, 527, 446
6737742499, -4, -29, -998, -3, 0, 0, 267, 531, 452
6737742499, -4, -29, -998, -3, 0, 0, 267, 531, 452
6737842412, 0, -33, -999, -4, 0, -3, 266, 532, 452
6737842412, 0, -33, -999, -4, 0, -3, 266, 532, 452
6737942431, -5, -35, -1008, -2, 0, -2, 264, 536, 457
6737942431, -5, -35, -1008, -2, 0, -2, 264, 536, 457
6738042397, -1, -30, -1005, -2, 2, -1, 263, 536, 459
6738042397, -1, -30, -1005, -2, 2, -1, 263, 536, 459
6738142371, -2, -31, -1001, -4, 1, -1, 262, 536, 459
6738142371, -2, -31, -1001, -4, 1, -1, 262, 536, 459
6738242476, -2, -39, -1004, -3, 1, -2, 261, 537, 461
6738242476, -2, -39, -1004, -3, 1, -2, 261, 537, 461
6738342412, 0, -43, -997, -4, 0, -2, 260, 538, 462
6738342412, 0, -43, -997, -4, 0, -2, 260, 538, 462
6738442434, -3, -31, -1001, -4, 0, -1, 259, 535, 461
6738442434, -3, -31, -1001, -4, 0, -1, 259, 535, 461
6738542567, -4, -37, -999, -6, 0, 2, 258, 537, 463
6738542567, -4, -37, -999, -6, 0, 2, 258, 537, 463
6738642683, -1, -29, -1000, -3, 0, -4, 258, 538, 466
6738642683, -1, -29, -1000, -3, 0, -4, 258, 538, 466
6738742618, 0, -27, -1000, -5, -1, -3, 256, 548, 476
6738742618, 0, -27, -1000, -5, -1, -3, 256, 548, 476
6738842477, -4, -16, -1005, -4, -1, 3, 256, 538, 467
6738842477, -4, -16, -1005, -4, -1, 3, 256, 538, 467
6738942409, -9, -27, -997, -6, 3, 0, 255, 539, 470
6738942409, -9, -27, -997, -6, 3, 0, 255, 539, 470
6739042523, 2, -15, -997, -7, -1, -2, 254, 546, 479
6739042523, 2, -15, -997, -7, -1, -2, 254, 546, 479
6739142476, -3, -23, -1003, -6, 1, 0, 253, 539, 473
6739142476, -3, -23, -1003, -6, 1, 0, 253, 539, 473
6739242484, -7, -26, -1002, -6, 2, -4, 252, 548, 484
6739242484, -7, -26, -1002, -6, 2, -4, 252, 548, 484
6739342438, -3, -29, -1002, -6, 0, 0, 251, 538, 476
6739342438, -3, -29, -1002, -6, 0, 0, 251, 538, 476
6739442439, -3, -34, -1003, -6, 5, -4, 250, 540, 480
6739442439, -3, -34, -1003, -6, 5, -4, 250, 540, 480
6739542434, -1, -37, -997, -7, 1, -4, 248, 547, 488
6739542434, -1, -37, -997, -7, 1, -4, 248, 547, 488
6739642425, -2, -23, -998, -5, 4, 0, 247, 550, 494
6739642425, -2, -23, -998, -5, 4, 0, 247, 550, 494
6739742464, -8, -21, -1005, 0, 5, -2, 246, 555, 502
6739742464, -8, -21, -1005, 0, 5, -2, 246, 555, 502
6739842424, 0, -29, -1000, -2, 6, -6, 244, 556, 505
6739842424, 0, -29, -1000, -2, 6, -6, 244, 556, 505
6739942387, 0, -33, -998, -4, 2, 2, 242, 557, 510
6739942387, 0, -33, -998, -4, 2, 2, 242, 557, 510
6740042444, -6, -32, -998, -6, 3, 0, 242, 558, 514
6740042444, -6, -32, -998, -6, 3, 0, 242, 558, 514
6740142379, -1, -27, -996, -8, 2, -4, 241, 557, 515
6740142379, -1, -27, -996, -8, 2, -4, 241, 557, 515
6740242398, 4, -30, -1000, -6, 3, 0, 240, 559, 520
6740242398, 4, -30, -1000, -6, 3, 0, 240, 559, 520
6740342485, 0, -24, -997, -6, 1, -3, 239, 551, 516
6740342485, 0, -24, -997, -6, 1, -3, 239, 551, 516
6740442495, 1, -26, -1002, -6, -1, -1, 238, 553, 522
6740442495, 1, -26, -1002, -6, -1, -1, 238, 553, 522
6740542466, -1, -26, -999, -6, 3, 1, 237, 551, 522
6740542466, -1, -26, -999, -6, 3, 1, 237, 551, 522
6740642437, 0, -29, -1001, -5, 3, -3, 236, 560, 535
6740642437, 0, -29, -1001, -5, 3, -3, 236, 560, 535
6740742397, 0, -27, -999, -5, 0, -3, 235, 561, 540
6740742397, 0, -27, -999, -5, 0, -3, 235, 561, 540
6740842425, -6, -26, -1004, -5, 2, -3, 234, 561, 544
6740842425, -6, -26, -1004, -5, 2, -3, 234, 561, 544
6740942492, -1, -22, -999, -4, 1, -4, 233, 563, 548
6740942492, -1, -22, -999, -4, 1, -4, 233, 563, 548
6741042477, -3, -25, -999, -3, 1, -3, 232, 563, 551
6741042477, -3, -25, -999, -3, 1, -3, 232, 563, 551
6741142586, -3, -25, -996, -4, 0, -2, 231, 562, 555
6741142586, -3, -25, -996, -4, 0, -2, 231, 562, 555
6741242496, -4, -24, -1002, -5, 1, -2, 232, 564, 559
6741242496, -4, -24, -1002, -5, 1, -2, 232, 564, 559
6741342437, -3, -35, -1000, -3, 2, 0, 232, 558, 557
6741342437, -3, -35, -1000, -3, 2, 0, 232, 558, 557
6741442476, -2, -25, -1004, -5, 1, 0, 231, 557, 560
6741442476, -2, -25, -1004, -5, 1, 0, 231, 557, 560
6741542471, -4, -18, -1001, -5, 1, 0, 230, 554, 561
6741542471, -4, -18, -1001, -5, 1, 0, 230, 554, 561
6741642401, 0, -23, -1001, -6, 2, 1, 229, 557, 569
6741642401, 0, -23, -1001, -6, 2, 1, 229, 557, 569
6741742461, 0, -15, -1001, -7, 0, 0, 228, 561, 577
6741742461, 0, -15, -1001, -7, 0, 0, 228, 561, 577
6741842490, -1, -15, -1001, -7, 0, 3, 228, 561, 582
6741842490, -1, -15, -1001, -7, 0, 3, 228, 561, 582
6741942448, -3, -19, -1004, -8, -3, 9, 227, 560, 587
6741942448, -3, -19, -1004, -8, -3, 9, 227, 560, 587
6742042453, -2, -22, -1005, -6, 0, 18, 227, 558, 592
6742042453, -2, -22, -1005, -6, 0, 18, 227, 558, 592
6742142438, -3, -25, -998, -7, 0, 19, 226, 557, 598
6742142438, -3, -25, -998, -7, 0, 19, 226, 557, 598
6742242379, -5, -25, -1000, -6, 0, 26, 226, 555, 604
6742242379, -5, -25, -1000, -6, 0, 26, 226, 555, 604
6742342409, -7, -29, -1002, -6, 1, 22, 226, 550, 606
6742342409, -7, -29, -1002, -6, 1, 22, 226, 550, 606
6742442535, -2, -23, -997, -6, 2, 14, 226, 545, 609
6742442535, -2, -23, -997, -6, 2, 14, 226, 545, 609
6742542444, -7, -24, -1001, -5, 0, 17, 225, 542, 612
6742542444, -7, -24, -1001, -5, 0, 17, 225, 542, 612
6742642565, -6, -27, -1000, -6, 2, 19, 224, 546, 625
6742642565, -6, -27, -1000, -6, 2, 19, 224, 546, 625
6742742549, -5, -27, -1002, -6, 1, 15, 224, 545, 631
6742742549, -5, -27, -1002, -6, 1, 15, 224, 545, 631
6742842381, -7, -24, -999, -5, 6, 13, 224, 542, 635
6742842381, -7, -24, -999, -5, 6, 13, 224, 542, 635
6742942385, -5, -26, -998, -6, 1, 8, 223, 542, 642
6742942385, -5, -26, -998, -6, 1, 8, 223, 542, 642
6743042507, -5, -28, -1002, -4, 3, 6, 223, 539, 646
6743042507, -5, -28, -1002, -4, 3, 6, 223, 539, 646
6743142409, -8, -28, -1004, 0, 2, 1, 222, 537, 649
6743142409, -8, -28, -1004, 0, 2, 1, 222, 537, 649
6743242452, -3, -47, -997, -1, 5, -12, 221, 535, 653
6743242452, -3, -47, -997, -1, 5, -12, 221, 535, 653
6743342532, 4, -49, -996, -3, -1, -1, 220, 532, 655
6743342532, 4, -49, -996, -3, -1, -1, 220, 532, 655
6743442378, 0, -45, -1002, -3, 3, 12, 220, 526, 650
6743442378, 0, -45, -1002, -3, 3, 12, 220, 526, 650
6743542414, -6, -29, -1002, -3, 2, 9, 220, 526, 651
6743542414, -6, -29, -1002, -3, 2, 9, 220, 526, 651
6743642422, -5, -27, -999, -5, 0, 3, 221, 528, 654
6743642422, -5, -27, -999, -5, 0, 3, 221, 528, 654
6743742456, -8, -23, -995, -4, 3, -9, 221, 532, 658
6743742456, -8, -23, -995, -4, 3, -9, 221, 532, 658
6743842843, 1, -36, -996, -2, 3, -13, 221, 535, 659
6743842843, 1, -36, -996, -2, 3, -13, 221, 535, 659
6743942741, 0, -35, -991, -3, 5, -11, 220, 536, 657
6743942741, 0, -35, -991, -3, 5, -11, 220, 536, 657
6744042431, 0, -22, -1000, -3, 0, -6, 221, 530, 648
6744042431, 0, -22, -1000, -3, 0, -6, 221, 530, 648
6744142379, -8, -23, -1005, -1, 2, -8, 222, 529, 643
6744142379, -8, -23, -1005, -1, 2, -8, 222, 529, 643
6744242506, 5, -34, -999, -4, 1, -6, 222, 537, 645
6744242506, 5, -34, -999, -4, 1, -6, 222, 537, 645
6744342428, 0, -35, -995, -6, 2, -6, 222, 538, 642
6744342428, 0, -35, -995, -6, 2, -6, 222, 538, 642
6744442503, -6, -12, -996, -3, 0, -9, 223, 534, 632
6744442503, -6, -12, -996, -3, 0, -9, 223, 534, 632
6744542574, -4, -9, -997, -3, 0, -10, 223, 535, 628
6744542574, -4, -9, -997, -3, 0, -10, 223, 535, 628
6744642443, -2, -24, -999, -2, 4, -9, 223, 540, 629
6744642443, -2, -24, -999, -2, 4, -9, 223, 540, 629
6744742424, -2, -19, -998, -3, 1, -4, 224, 546, 630
6744742424, -2, -19, -998, -3, 1, -4, 224, 546, 630
6744842439, -1, -7, -997, -3, 1, 0, 224, 547, 628
6744842439, -1, -7, -997, -3, 1, 0, 224, 547, 628
6744942388, -7, -9, -999, -3, 1, -4, 224, 547, 625
6744942388, -7, -9, -999, -3, 1, -4, 224, 547, 625
6745042405, -1, -17, -996, -3, 2, -4, 224, 548, 623
6745042405, -1, -17, -996, -3, 2, -4, 224, 548, 623
6745142500, 0, -30, -998, -4, 4, 0, 225, 547, 622
6745142500, 0, -30, -998, -4, 4, 0, 225, 547, 622
6745242435, -6, -23, -997, -2, 5, 0, 225, 548, 621
6745242435, -6, -23, -997, -2, 5, 0, 225, 548, 621
6745342514, -1, -19, -997, -3, 0, 1, 225, 545, 617
6745342514, -1, -19, -997, -3, 0, 1, 225, 545, 617
6745442451, -6, -14, -1000, -2, 6, 1, 225, 544, 615
6745442451, -6, -14, -1000, -2, 6, 1, 225, 544, 615
6745542427, -9, -31, -1001, -4, -3, 0, 225, 543, 615
6745542427, -9, -31, -1001, -4, -3, 0, 225, 543, 615
6745642393, -1, -28, -1000, -3, 2, -3, 225, 543, 616
6745642393, -1, -28, -1000, -3, 2, -3, 225, 543, 616
6745742445, -4, -27, -1003, -3, 0, 2, 225, 549, 622
6745742445, -4, -27, -1003, -3, 0, 2, 225, 549, 622
6745842419, -1, -17, -1000, -3, 2, 0, 225, 549, 621
6745842419, -1, -17, -1000, -3, 2, 0, 225, 549, 621
6745942427, -7, -18, -1002, -3, 2, -6, 225, 550, 622
6745942427, -7, -18, -1002, -3, 2, -6, 225, 550, 622
6746042478, -2, -26, -1002, -3, 2, 0, 225, 550, 621
6746042478, -2, -26, -1002, -3, 2, 0, 225, 550, 621
