Time (us), Accel_X (mG), Accel_Y (mG), Accel_Z (mG), Gyro_X (mRad/s), Gyro_Y (mRad/s), Gyro_Z (mRad/s), Mag_X (mGauss), Mag_Y (mGauss), Mag_Z (mGauss)
6930542431, -2, -12, -994, -2, 1, 100, 281, 378, 292
6930542431, -2, -12, -994, -2, 1, 100, 281, 378, 292
6930642529, -9, -14, -1003, -3, 7, 65, 282, 384, 303
6930642529, -9, -14, -1003, -3, 7, 65, 282, 384, 303
6930742439, -16, -14, -996, -3, 2, 24, 284, 382, 302
6930742439, -16, -14, -996, -3, 2, 24, 284, 382, 302
6930842537, -8, -13, -1001, -4, 1, -1, 284, 382, 303
6930842537, -8, -13, -1001, -4, 1, -1, 284, 382, 303
6930942404, -5, -7, -1000, -4, 2, -10, 284, 382, 304
6930942404, -5, -7, -1000, -4, 2, -10, 284, 382, 304
6931042403, -5, 7, -1000, -3, 2, -17, 284, 374, 296
6931042403, -5, 7, -1000, -3, 2, -17, 284, 374, 296
6931142489, 0, -6, -998, -4, 3, -13, 284, 382, 303
6931142489, 0, -6, -998, -4, 3, -13, 284, 382, 303
6931242477, -2, -14, -999, -3, 1, -12, 284, 383, 304
6931242477, -2, -14, -999, -3, 1, -12, 284, 383, 304
6931342465, -3, -8, -999, -4, 2, -23, 284, 383, 303
6931342465, -3, -8, -999, -4, 2, -23, 284, 383, 303
6931442484, -1, -5, -1001, -4, 1, -32, 284, 383, 302
6931442484, -1, -5, -1001, -4, 1, -32, 284, 383, 302
6931542463, -6, -4, -1000, -4, 2, -40, 283, 385, 303
6931542463, -6, -4, -1000, -4, 2, -40, 283, 385, 303
6931642398, -1, -15, -1001, -3, 2, -43, 282, 385, 303
6931642398, -1, -15, -1001, -3, 2, -43, 282, 385, 303
6931742503, -17, -8, -1001, -4, 0, -61, 281, 383, 300
6931742503, -17, -8, -1001, -4, 0, -61, 281, 383, 300
6931842406, -15, -5, -998, -4, 2, -110, 280, 387, 302
6931842406, -15, -5, -998, -4, 2, -110, 280, 387, 302
6931942440, -8, -1, -1004, -4, 0, -136, 278, 391, 303
6931942440, -8, -1, -1004, -4, 0, -136, 278, 391, 303
6932042503, -10, -4, -996, -4, 2, -152, 276, 393, 301
6932042503, -10, -4, -996, -4, 2, -152, 276, 393, 301
6932142508, 4, -10, -1004, -4, 1, -147, 273, 397, 300
6932142508, 4, -10, -1004, -4, 1, -147, 273, 397, 300
6932242436, 0, 0, -1002, -6, -2, -123, 270, 402, 300
6932242436, 0, 0, -1002, -6, -2, -123, 270, 402, 300
6932342434, 7, 0, -1001, -4, 0, -93, 268, 403, 300
6932342434, 7, 0, -1001, -4, 0, -93, 268, 403, 300
6932442374, -9, -5, -1004, -4, 3, -75, 267, 406, 297
6932442374, -9, -5, -1004, -4, 3, -75, 267, 406, 297
6932542452, -22, -21, -1006, -5, -1, -94, 265, 408, 298
6932542452, -22, -21, -1006, -5, -1, -94, 265, 408, 298
6932642479, -3, 0, -997, -6, 1, -133, 263, 409, 296
6932642479, -3, 0, -997, -6, 1, -133, 263, 409, 296
6932742429, 3, 5, -1000, -6, 3, -132, 261, 410, 293
6932742429, 3, 5, -1000, -6, 3, -132, 261, 410, 293
6932842418, -15, 12, -994, -8, 2, -123, 258, 416, 296
6932842418, -15, 12, -994, -8, 2, -123, 258, 416, 296
6932942653, -7, -1, -991, -5, -2, -150, 256, 419, 296
6932942653, -7, -1, -991, -5, -2, -150, 256, 419, 296
6933042409, -6, -1, -985, -5, 2, -173, 253, 421, 293
6933042409, -6, -1, -985, -5, 2, -173, 253, 421, 293
6933142451, -5, 1, -985, -5, 0, -203, 250, 426, 292
6933142451, -5, 1, -985, -5, 0, -203, 250, 426, 292
6933242444, -1, 18, -990, -5, -2, -212, 246, 433, 293
6933242444, -1, 18, -990, -5, -2, -212, 246, 433, 293
6933342425, -9, 7, -995, -5, 7, -223, 242, 436, 291
6933342425, -9, 7, -995, -5, 7, -223, 242, 436, 291
6933442494, -10, -13, -1003, -3, 3, -251, 237, 440, 289
6933442494, -10, -13, -1003, -3, 3, -251, 237, 440, 289
6933542497, -12, -14, -999, -5, 0, -281, 232, 447, 288
6933542497, -12, -14, -999, -5, 0, -281, 232, 447, 288
6933642469, 2, -3, -999, -5, 1, -301, 226, 452, 287
6933642469, 2, -3, -999, -5, 1, -301, 226, 452, 287
6933742406, -4, 7, -996, -6, -5, -300, 219, 457, 283
6933742406, -4, 7, -996, -6, -5, -300, 219, 457, 283
6933842498, -7, 8, -1004, -6, 6, -295, 212, 465, 284
6933842498, -7, 8, -1004, -6, 6, -295, 212, 465, 284
6933942373, -1, 0, -999, -6, 0, -310, 205, 471, 283
6933942373, -1, 0, -999, -6, 0, -310, 205, 471, 283
6934042451, 0, -2, -999, -6, 0, -319, 197, 476, 279
6934042451, 0, -2, -999, -6, 0, -319, 197, 476, 279
6934242516, 4, -16, -998, -6, 0, -273, 181, 489, 278
6934242516, 4, -16, -998, -6, 0, -273, 181, 489, 278
6934342377, 0, 0, -999, -7, 2, -249, 174, 492, 275
6934342377, 0, 0, -999, -7, 2, -249, 174, 492, 275
6934442439, -8, -5, -999, -5, 4, -241, 167, 497, 275
6934442439, -8, -5, -999, -5, 4, -241, 167, 497, 275
6934542705, -10, -4, -999, -8, 3, -267, 160, 502, 275
6934542705, -10, -4, -999, -8, 3, -267, 160, 502, 275
6934642711, -2, 0, -1000, -6, 5, -274, 152, 506, 274
6934642711, -2, 0, -1000, -6, 5, -274, 152, 506, 274
6934742474, -8, 4, -1001, -6, 4, -281, 144, 503, 264
6934742474, -8, 4, -1001, -6, 4, -281, 144, 503, 264
6934842394, -12, 0, -1000, -5, 3, -299, 136, 512, 268
6934842394, -12, 0, -1000, -5, 3, -299, 136, 512, 268
6934942403, -5, 0, -999, -5, 6, -319, 127, 516, 268
6934942403, -5, 0, -999, -5, 6, -319, 127, 516, 268
6935042500, 8, -3, -1000, -6, 9, -311, 117, 519, 265
6935042500, 8, -3, -1000, -6, 9, -311, 117, 519, 265
6935142520, -6, -5, -1005, -5, 4, -302, 107, 523, 264
6935142520, -6, -5, -1005, -5, 4, -302, 107, 523, 264
6935242470, -1, -5, -998, -4, 4, -291, 97, 526, 263
6935242470, -1, -5, -998, -4, 4, -291, 97, 526, 263
6935342474, 7, -14, -999, -6, 4, -286, 87, 527, 260
6935342474, 7, -14, -999, -6, 4, -286, 87, 527, 260
6935442385, 7, 8, -998, -4, 5, -276, 77, 530, 259
6935442385, 7, 8, -998, -4, 5, -276, 77, 530, 259
6935542466, -6, -4, -1002, -3, 0, -284, 68, 532, 258
6935542466, -6, -4, -1002, -3, 0, -284, 68, 532, 258
6935642424, -3, -8, -999, -4, 1, -303, 58, 533, 256
6935642424, -3, -8, -999, -4, 1, -303, 58, 533, 256
6935742421, -3, 0, -1003, -5, 3, -318, 47, 532, 253
6935742421, -3, 0, -1003, -5, 3, -318, 47, 532, 253
6935842425, 2, 5, -999, -6, -5, -318, 37, 535, 253
6935842425, 2, 5, -999, -6, -5, -318, 37, 535, 253
6935942575, -9, -7, -1001, -3, 0, -320, 25, 536, 252
6935942575, -9, -7, -1001, -3, 0, -320, 25, 536, 252
6936042448, -9, 0, -1002, -6, 8, -335, 14, 529, 243
6936042448, -9, 0, -1002, -6, 8, -335, 14, 529, 243
6936142442, 5, -1, -998, -8, 2, -343, 2, 531, 244
6936142442, 5, -1, -998, -8, 2, -343, 2, 531, 244
6936242429, 1, 0, -1000, -6, -9, -350, -9, 535, 247
6936242429, 1, 0, -1000, -6, -9, -350, -9, 535, 247
6936342404, -11, 16, -998, -6, -6, -351, -22, 533, 245
6936342404, -11, 16, -998, -6, -6, -351, -22, 533, 245
6936442544, -6, 0, -1001, -7, 0, -361, -35, 531, 245
6936442544, -6, 0, -1001, -7, 0, -361, -35, 531, 245
6936542476, -1, 12, -997, -8, 5, -368, -48, 530, 245
6936542476, -1, 12, -997, -8, 5, -368, -48, 530, 245
6936642419, 5, 7, -1003, -4, 1, -349, -62, 526, 243
6936642419, 5, 7, -1003, -4, 1, -349, -62, 526, 243
6936742385, 0, 0, -1002, -7, 0, -323, -75, 524, 242
6936742385, 0, 0, -1002, -7, 0, -323, -75, 524, 242
6936842571, 4, -3, -1000, -4, 0, -310, -87, 524, 245
6936842571, 4, -3, -1000, -4, 0, -310, -87, 524, 245
6936942370, -7, 0, -1000, -4, -2, -294, -99, 521, 245
6936942370, -7, 0, -1000, -4, -2, -294, -99, 521, 245
6937042385, -3, 1, -998, -5, 0, -302, -110, 515, 244
6937042385, -3, 1, -998, -5, 0, -302, -110, 515, 244
6937142565, -5, 1, -1000, -5, -2, -313, -120, 513, 245
6937142565, -5, 1, -1000, -5, -2, -313, -120, 513, 245
6937242496, -14, -8, -994, -7, 5, -326, -131, 509, 246
6937242496, -14, -8, -994, -7, 5, -326, -131, 509, 246
6937342446, -1, -18, -1001, -6, 2, -333, -143, 502, 245
6937342446, -1, -18, -1001, -6, 2, -333, -143, 502, 245
6937442433, 2, 17, -1000, -4, 1, -303, -155, 498, 247
6937442433, 2, 17, -1000, -4, 1, -303, -155, 498, 247
6937542406, 4, -6, -998, -4, 0, -262, -166, 492, 248
6937542406, 4, -6, -998, -4, 0, -262, -166, 492, 248
6937642393, -1, 0, -999, -4, 4, -236, -175, 486, 246
6937642393, -1, 0, -999, -4, 4, -236, -175, 486, 246
6937742514, -5, -3, -998, -3, 1, -229, -183, 480, 247
6937742514, -5, -3, -998, -3, 1, -229, -183, 480, 247
6937842435, -6, 8, -999, -5, 0, -240, -191, 478, 250
6937842435, -6, 8, -999, -5, 0, -240, -191, 478, 250
6937942427, -15, -8, -999, -4, 0, -257, -199, 470, 248
6937942427, -15, -8, -999, -4, 0, -257, -199, 470, 248
6938042492, -10, -7, -1000, -8, 0, -289, -207, 465, 249
6938042492, -10, -7, -1000, -8, 0, -289, -207, 465, 249
6938142487, -6, 1, -1002, -4, 3, -319, -216, 458, 249
6938142487, -6, 1, -1002, -4, 3, -319, -216, 458, 249
6938242410, -8, 13, -999, -5, 0, -321, -226, 451, 252
6938242410, -8, 13, -999, -5, 0, -321, -226, 451, 252
6938342444, -3, 2, -1001, -5, 1, -317, -235, 442, 252
6938342444, -3, 2, -1001, -5, 1, -317, -235, 442, 252
6938442389, 0, 2, -999, -7, 2, -311, -245, 435, 255
6938442389, 0, 2, -999, -7, 2, -311, -245, 435, 255
6938542600, -14, 3, -1000, -7, 7, -307, -254, 427, 256
6938542600, -14, 3, -1000, -7, 7, -307, -254, 427, 256
6938642499, -15, -13, -1002, -4, 5, -324, -263, 418, 258
6938642499, -15, -13, -1002, -4, 5, -324, -263, 418, 258
6938742418, -9, -9, -1002, -5, 5, -355, -272, 409, 260
6938742418, -9, -9, -1002, -5, 5, -355, -272, 409, 260
6938842383, -9, -1, -999, -8, 11, -359, -281, 400, 263
6938842383, -9, -1, -999, -8, 11, -359, -281, 400, 263
6938942435, -7, 9, -999, -4, 2, -352, -290, 388, 265
6938942435, -7, 9, -999, -4, 2, -352, -290, 388, 265
6939042455, 0, 3, -1001, -4, 5, -339, -298, 376, 265
6939042455, 0, 3, -1001, -4, 5, -339, -298, 376, 265
6939142507, 4, -2, -1000, -4, 1, -320, -306, 368, 270
6939142507, 4, -2, -1000, -4, 1, -320, -306, 368, 270
6939342418, 2, 10, -1001, -5, 5, -281, -319, 346, 272
6939342418, 2, 10, -1001, -5, 5, -281, -319, 346, 272
6939442538, 0, 3, -1002, -3, 2, -263, -325, 338, 276
6939442538, 0, 3, -1002, -3, 2, -263, -325, 338, 276
6939542456, 0, -5, -1000, -2, 0, -243, -330, 329, 278
6939542456, 0, -5, -1000, -2, 0, -243, -330, 329, 278
6939642398, -4, -4, -1001, -3, 0, -229, -334, 320, 279
6939642398, -4, -4, -1001, -3, 0, -229, -334, 320, 279
6939742892, -6, -4, -1001, -4, 0, -235, -339, 313, 282
6939742892, -6, -4, -1001, -4, 0, -235, -339, 313, 282
6939842662, -8, -14, -1000, -3, 3, -247, -342, 305, 283
6939842662, -8, -14, -1000, -3, 3, -247, -342, 305, 283
6939942431, -5, -1, -1000, -4, 0, -275, -346, 290, 277
6939942431, -5, -1, -1000, -4, 0, -275, -346, 290, 277
6940042440, -10, 5, -998, -7, 3, -285, -350, 289, 290
6940042440, -10, 5, -998, -7, 3, -285, -350, 289, 290
6940142564, -8, -10, -1002, -3, 0, -298, -354, 280, 293
6940142564, -8, -10, -1002, -3, 0, -298, -354, 280, 293
6940242484, -1, -1, -997, -4, 0, -300, -358, 270, 296
6940242484, -1, -1, -997, -4, 0, -300, -358, 270, 296
6940342445, 3, -5, -999, -4, 1, -296, -361, 258, 297
6940342445, 3, -5, -999, -4, 1, -296, -361, 258, 297
6940442428, 0, 2, -1004, -6, 4, -298, -365, 249, 301
6940442428, 0, 2, -1004, -6, 4, -298, -365, 249, 301
6940642422, -6, 2, -999, -6, 1, -301, -370, 219, 297
6940642422, -6, 2, -999, -6, 1, -301, -370, 219, 297
6940742608, -1, 4, -998, -6, 4, -310, -373, 216, 308
6940742608, -1, 4, -998, -6, 4, -310, -373, 216, 308
6940842389, -7, 5, -1002, -5, 4, -316, -375, 207, 312
6940842389, -7, 5, -1002, -5, 4, -316, -375, 207, 312
6940942397, 6, 0, -1000, -4, 5, -296, -377, 195, 315
6940942397, 6, 0, -1000, -4, 5, -296, -377, 195, 315
6941042519, 3, -24, -1002, -4, 3, -264, -378, 184, 318
6941042519, 3, -24, -1002, -4, 3, -264, -378, 184, 318
6941142472, 3, -16, -1001, -5, 0, -259, -379, 169, 315
6941142472, 3, -16, -1001, -5, 0, -259, -379, 169, 315
6941242465, -2, -14, -1000, -4, 4, -255, -380, 165, 324
6941242465, -2, -14, -1000, -4, 4, -255, -380, 165, 324
6941342489, -8, 0, -1000, -4, 3, -263, -380, 155, 326
6941342489, -8, 0, -1000, -4, 3, -263, -380, 155, 326
6941442450, 2, -5, -1000, -4, 7, -274, -380, 148, 329
6941442450, 2, -5, -1000, -4, 7, -274, -380, 148, 329
6941542445, 0, -7, -1001, -2, 3, -276, -380, 137, 332
6941542445, 0, -7, -1001, -2, 3, -276, -380, 137, 332
6941642414, 7, -2, -999, -4, -1, -262, -380, 126, 334
6941642414, 7, -2, -999, -4, -1, -262, -380, 126, 334
6941742368, -1, -11, -1001, -5, 1, -258, -379, 115, 334
6941742368, -1, -11, -1001, -5, 1, -258, -379, 115, 334
6941842382, -8, -4, -1004, -4, 1, -271, -378, 108, 341
6941842382, -8, -4, -1004, -4, 1, -271, -378, 108, 341
6941942455, -1, 1, -997, -4, 2, -280, -376, 97, 342
6941942455, -1, 1, -997, -4, 2, -280, -376, 97, 342
6942042549, -9, -11, -999, -4, 1, -288, -375, 86, 343
6942042549, -9, -11, -999, -4, 1, -288, -375, 86, 343
6942142499, -2, -12, -1003, -4, 1, -304, -372, 78, 349
6942142499, -2, -12, -1003, -4, 1, -304, -372, 78, 349
6942242447, 0, -11, -999, -4, 2, -308, -370, 66, 351
6942242447, 0, -11, -999, -4, 2, -308, -370, 66, 351
6942342376, 1, 6, -1000, -7, 0, -309, -367, 55, 353
6942342376, 1, 6, -1000, -7, 0, -309, -367, 55, 353
6942442445, 0, -3, -996, -5, 0, -301, -363, 49, 359
6942442445, 0, -3, -996, -5, 0, -301, -363, 49, 359
6942542467, 0, 1, -998, -4, 0, -281, -359, 36, 360
6942542467, 0, 1, -998, -4, 0, -281, -359, 36, 360
6942642404, 1, -4, -1001, -5, 5, -259, -356, 24, 362
6942642404, 1, -4, -1001, -5, 5, -259, -356, 24, 362
6942842566, 3, -8, -999, -6, 4, -257, -348, 8, 369
6942842566, 3, -8, -999, -6, 4, -257, -348, 8, 369
6942942375, 1, -12, -1001, -6, 1, -254, -343, -1, 369
6942942375, 1, -12, -1001, -6, 1, -254, -343, -1, 369
6943042387, 4, -3, -1000, -7, 2, -249, -339, -8, 373
6943042387, 4, -3, -1000, -7, 2, -249, -339, -8, 373
6943142492, -1, 1, -1001, -6, 2, -245, -334, -16, 375
6943142492, -1, 1, -1001, -6, 2, -245, -334, -16, 375
6943242376, -1, -2, -998, -5, 0, -233, -329, -23, 378
6943242376, -1, -2, -998, -5, 0, -233, -329, -23, 378
6943342533, 3, -17, -999, -3, 3, -226, -325, -31, 379
6943342533, 3, -17, -999, -3, 3, -226, -325, -31, 379
6943442490, -4, -10, -997, -3, 5, -235, -320, -36, 384
6943442490, -4, -10, -997, -3, 5, -235, -320, -36, 384
6943542422, -5, -8, -998, -7, 0, -267, -315, -44, 384
6943542422, -5, -8, -998, -7, 0, -267, -315, -44, 384
6943642365, 9, 10, -1003, -5, 3, -269, -309, -53, 386
6943642365, 9, 10, -1003, -5, 3, -269, -309, -53, 386
6943742497, 11, -6, -1000, -4, 0, -222, -302, -61, 388
6943742497, 11, -6, -1000, -4, 0, -222, -302, -61, 388
6943842395, 5, -14, -997, -3, 3, -182, -296, -66, 391
6943842395, 5, -14, -997, -3, 3, -182, -296, -66, 391
6943942474, 0, -14, -998, -2, 3, -177, -291, -72, 392
6943942474, 0, -14, -998, -2, 3, -177, -291, -72, 392
6944042522, 2, -16, -1000, -5, 0, -182, -286, -76, 394
6944042522, 2, -16, -1000, -5, 0, -182, -286, -76, 394
6944142560, -1, -27, -997, -5, 3, -190, -281, -80, 396
6944142560, -1, -27, -997, -5, 3, -190, -281, -80, 396
6944242489, -1, -1, -999, -5, 1, -202, -276, -87, 396
6944242489, -1, -1, -999, -5, 1, -202, -276, -87, 396
6944342467, -2, 8, -1005, -4, 4, -203, -270, -91, 399
6944342467, -2, 8, -1005, -4, 4, -203, -270, -91, 399
6944442450, 3, 0, -999, -5, 1, -214, -264, -95, 401
6944442450, 3, 0, -999, -5, 1, -214, -264, -95, 401
6944542428, -2, 0, -1000, -5, 1, -227, -257, -100, 402
6944542428, -2, 0, -1000, -5, 1, -227, -257, -100, 402
6944642610, -1, -10, -1000, -4, 0, -235, -251, -107, 403
6944642610, -1, -10, -1000, -4, 0, -235, -251, -107, 403
6944742438, 4, -9, -999, -4, 1, -233, -243, -110, 406
6944742438, 4, -9, -999, -4, 1, -233, -243, -110, 406
6944842773, 0, 0, -1002, -4, 2, -238, -236, -116, 408
6944842773, 0, 0, -1002, -4, 2, -238, -236, -116, 408
6944947579, 6, 0, -1001, -5, 1, -225, -228, -118, 412
6944947579, 6, 0, -1001, -5, 1, -225, -228, -118, 412
6945042528, 1, -6, -1001, -4, 0, -208, -220, -129, 406
6945042528, 1, -6, -1001, -4, 0, -208, -220, -129, 406
6945142489, -3, -4, -999, -6, 0, -207, -212, -132, 409
6945142489, -3, -4, -999, -6, 0, -207, -212, -132, 409
6945242479, -4, -6, -998, -6, 4, -217, -205, -133, 413
6945242479, -4, -6, -998, -6, 4, -217, -205, -133, 413
6945342447, 0, -10, -1000, -5, 4, -222, -197, -137, 414
6945342447, 0, -10, -1000, -5, 4, -222, -197, -137, 414
6945442416, 2, -12, -998, -7, 3, -225, -189, -139, 416
6945442416, 2, -12, -998, -7, 3, -225, -189, -139, 416
6945542448, 4, -10, -999, -6, 2, -209, -180, -144, 417
6945542448, 4, -10, -999, -6, 2, -209, -180, -144, 417
6945642369, 0, 0, -1000, -5, 0, -199, -173, -148, 417
6945642369, 0, 0, -1000, -5, 0, -199, -173, -148, 417
6945742458, -1, -2, -1000, -6, 2, -207, -165, -149, 420
6945742458, -1, -2, -1000, -6, 2, -207, -165, -149, 420
6945842553, -1, -12, -999, -6, 3, -215, -157, -152, 421
6945842553, -1, -12, -999, -6, 3, -215, -157, -152, 421
6945942430, 4, 11, -1001, -5, 2, -225, -149, -155, 421
6945942430, 4, 11, -1001, -5, 2, -225, -149, -155, 421
6946042391, 6, 7, -999, -6, 2, -211, -140, -156, 423
6946042391, 6, 7, -999, -6, 2, -211, -140, -156, 423
6946142679, 7, -14, -1000, -5, 0, -187, -131, -161, 421
6946142679, 7, -14, -1000, -5, 0, -187, -131, -161, 421
6946242407, -1, -13, -1000, -5, 5, -167, -123, -167, 417
6946242407, -1, -13, -1000, -5, 5, -167, -123, -167, 417
6946342579, 0, -11, -997, -6, 1, -170, -116, -161, 425
6946342579, 0, -11, -997, -6, 1, -170, -116, -161, 425
6946442501, -4, -15, -1000, -6, 6, -180, -109, -162, 427
6946442501, -4, -15, -1000, -6, 6, -180, -109, -162, 427
6946642445, 1, -5, -997, -6, 5, -210, -94, -165, 427
6946642445, 1, -5, -997, -6, 5, -210, -94, -165, 427
6946742507, 3, 3, -1002, -5, 5, -200, -85, -163, 430
6946742507, 3, 3, -1002, -5, 5, -200, -85, -163, 430
6946842391, 0, 0, -998, -4, 3, -191, -76, -165, 431
6946842391, 0, 0, -998, -4, 3, -191, -76, -165, 431
6946942399, 0, -4, -998, -5, 5, -194, -68, -165, 432
6946942399, 0, -4, -998, -5, 5, -194, -68, -165, 432
6947042504, 3, -3, -1001, -4, 0, -189, -59, -163, 435
6947042504, 3, -3, -1001, -4, 0, -189, -59, -163, 435
6947142485, 9, 4, -998, -5, 0, -173, -51, -162, 436
6947142485, 9, 4, -998, -5, 0, -173, -51, -162, 436
6947242482, 4, 0, -1000, -5, 4, -153, -43, -164, 436
6947242482, 4, 0, -1000, -5, 4, -153, -43, -164, 436
6947342505, 0, 7, -998, -4, 2, -152, -36, -162, 438
6947342505, 0, 7, -998, -4, 2, -152, -36, -162, 438
6947442395, 3, 5, -998, -4, 1, -152, -29, -161, 439
6947442395, 3, 5, -998, -4, 1, -152, -29, -161, 439
6947542458, 0, -24, -999, -3, 3, -162, -22, -162, 438
6947542458, 0, -24, -999, -3, 3, -162, -22, -162, 438
6947642541, 1, -2, -1000, -5, 1, -175, -15, -161, 439
6947642541, 1, -2, -1000, -5, 1, -175, -15, -161, 439
6947742473, 0, 1, -998, -4, 0, -179, -7, -157, 442
6947742473, 0, 1, -998, -4, 0, -179, -7, -157, 442
6947842493, -3, 0, -1002, -4, 2, -192, 0, -158, 441
6947842493, -3, 0, -1002, -4, 2, -192, 0, -158, 441
6947942495, -8, -1, -1001, -4, 2, -219, 8, -155, 442
6947942495, -8, -1, -1001, -4, 2, -219, 8, -155, 442
6948042624, -9, -12, -1001, -6, 3, -239, 17, -152, 445
6948042624, -9, -12, -1001, -6, 3, -239, 17, -152, 445
6948142397, -1, 20, -1003, -5, 1, -264, 28, -150, 444
6948142397, -1, 20, -1003, -5, 1, -264, 28, -150, 444
6948242457, -2, -10, -999, -7, 3, -278, 39, -147, 445
6948242457, -2, -10, -999, -7, 3, -278, 39, -147, 445
6948342409, 4, 0, -999, -5, 1, -280, 51, -141, 446
6948342409, 4, 0, -999, -5, 1, -280, 51, -141, 446
6948442452, 7, -3, -1003, -6, 9, -252, 63, -138, 446
6948442452, 7, -3, -1003, -6, 9, -252, 63, -138, 446
6948542502, 4, -4, -997, -6, 1, -239, 73, -135, 445
6948542502, 4, -4, -997, -6, 1, -239, 73, -135, 445
6948642432, 0, 14, -999, -5, 2, -243, 83, -129, 447
6948642432, 0, 14, -999, -5, 2, -243, 83, -129, 447
6948742427, 1, 0, -997, -5, 1, -254, 93, -123, 447
6948742427, 1, 0, -997, -5, 1, -254, 93, -123, 447
6948842500, 4, -1, -996, -7, 8, -245, 103, -118, 447
6948842500, 4, -1, -996, -7, 8, -245, 103, -118, 447
6948942445, -4, -3, -1002, -5, 0, -248, 113, -113, 445
6948942445, -4, -3, -1002, -5, 0, -248, 113, -113, 445
6949042400, 2, 9, -1002, -6, 2, -239, 122, -107, 446
6949042400, 2, 9, -1002, -6, 2, -239, 122, -107, 446
6949142482, 3, 15, -1000, -4, 4, -213, 132, -104, 442
6949142482, 3, 15, -1000, -4, 4, -213, 132, -104, 442
6949242469, 10, -4, -1000, -4, 0, -183, 140, -97, 442
6949242469, 10, -4, -1000, -4, 0, -183, 140, -97, 442
6949342633, 7, -9, -1001, -4, 1, -148, 146, -90, 444
6949342633, 7, -9, -1001, -4, 1, -148, 146, -90, 444
6949442443, 3, -1, -1002, -4, 2, -131, 151, -86, 444
6949442443, 3, -1, -1002, -4, 2, -131, 151, -86, 444
6949542398, 0, 3, -1001, -6, 2, -138, 156, -84, 441
6949542398, 0, 3, -1001, -6, 2, -138, 156, -84, 441
6949642384, -2, 1, -1000, -4, 4, -147, 161, -80, 441
6949642384, -2, 1, -1000, -4, 4, -147, 161, -80, 441
6949742469, 2, -2, -998, -6, 1, -158, 166, -75, 441
6949742469, 2, -2, -998, -6, 1, -158, 166, -75, 441
6949842480, 12, 1, -999, -5, 3, -135, 171, -71, 440
6949842480, 12, 1, -999, -5, 3, -135, 171, -71, 440
6949942436, -2, -28, -999, -4, 3, -129, 175, -67, 439
6949942436, -2, -28, -999, -4, 3, -129, 175, -67, 439
6950047618, 1, -2, -998, -5, 0, -176, 179, -60, 441
6950047618, 1, -2, -998, -5, 0, -176, 179, -60, 441
6950142428, 1, 19, -999, -4, 4, -187, 184, -59, 436
6950142428, 1, 19, -999, -4, 4, -187, 184, -59, 436
6950242395, -3, 6, -1001, -3, 2, -185, 190, -61, 427
6950242395, -3, 6, -1001, -3, 2, -185, 190, -61, 427
6950342434, 1, 5, -1002, -4, 2, -188, 196, -45, 436
6950342434, 1, 5, -1002, -4, 2, -188, 196, -45, 436
6950442381, -3, 11, -1001, -5, 1, -190, 201, -40, 435
6950442381, -3, 11, -1001, -5, 1, -190, 201, -40, 435
6950542427, 1, -10, -1002, -4, -1, -189, 206, -35, 432
6950542427, 1, -10, -1002, -4, -1, -189, 206, -35, 432
6950642555, 3, -4, -1001, -5, 0, -186, 210, -37, 424
6950642555, 3, -4, -1001, -5, 0, -186, 210, -37, 424
6950742471, -5, 5, -1000, -4, -1, -195, 215, -27, 428
6950742471, -5, 5, -1000, -4, -1, -195, 215, -27, 428
6950842418, -1, -3, -1002, -4, 0, -209, 219, -20, 427
6950842418, -1, -3, -1002, -4, 0, -209, 219, -20, 427
6950942468, 3, 2, -998, -4, 3, -216, 224, -13, 428
6950942468, 3, 2, -998, -4, 3, -216, 224, -13, 428
6951142666, 5, 12, -1000, -5, 2, -194, 234, -1, 424
6951142666, 5, 12, -1000, -5, 2, -194, 234, -1, 424
6951242549, 0, 6, -1000, -4, 2, -178, 237, -2, 415
6951242549, 0, 6, -1000, -4, 2, -178, 237, -2, 415
6951342479, -6, 6, -998, -3, -3, -173, 241, 11, 421
6951342479, -6, 6, -998, -3, -3, -173, 241, 11, 421
6951442530, 17, 6, -1000, -4, 0, -153, 244, 15, 420
6951442530, 17, 6, -1000, -4, 0, -153, 244, 15, 420
6951542479, -4, 12, -999, -5, 0, -140, 247, 15, 416
6951542479, -4, 12, -999, -5, 0, -140, 247, 15, 416
6951642422, -2, -3, -999, -4, 0, -134, 250, 21, 417
6951642422, -2, -3, -999, -4, 0, -134, 250, 21, 417
6951742441, -7, -4, -1001, -4, 0, -149, 252, 24, 417
6951742441, -7, -4, -1001, -4, 0, -149, 252, 24, 417
6951842574, -7, 10, -998, -5, 1, -178, 255, 27, 414
6951842574, -7, 10, -998, -5, 1, -178, 255, 27, 414
6951942656, -1, 1, -999, -6, 1, -205, 258, 31, 412
6951942656, -1, 1, -999, -6, 1, -205, 258, 31, 412
6952042494, -8, 10, -1000, -5, 0, -219, 261, 38, 412
6952042494, -8, 10, -1000, -5, 0, -219, 261, 38, 412
6952142559, 3, 7, -1000, -5, 2, -234, 265, 41, 409
6952142559, 3, 7, -1000, -5, 2, -234, 265, 41, 409
6952242408, -3, 5, -999, -6, 0, -235, 268, 46, 407
6952242408, -3, 5, -999, -6, 0, -235, 268, 46, 407
6952342537, 2, 3, -999, -6, 5, -223, 272, 54, 407
6952342537, 2, 3, -999, -6, 5, -223, 272, 54, 407
6952442506, -3, 5, -999, -5, 0, -231, 275, 59, 405
6952442506, -3, 5, -999, -5, 0, -231, 275, 59, 405
6952542497, -1, -3, -1000, -5, 1, -231, 279, 63, 402
6952542497, -1, -3, -1000, -5, 1, -231, 279, 63, 402
6952642540, 6, 5, -998, -4, 2, -214, 281, 69, 402
6952642540, 6, 5, -998, -4, 2, -214, 281, 69, 402
6952742606, -2, 0, -1001, -3, -3, -208, 284, 74, 401
6952742606, -2, 0, -1001, -3, -3, -208, 284, 74, 401
6952842489, -6, 7, -1000, -4, 4, -197, 286, 75, 396
6952842489, -6, 7, -1000, -4, 4, -197, 286, 75, 396
6952942442, -3, 0, -999, -6, 7, -197, 289, 84, 398
6952942442, -3, 0, -999, -6, 7, -197, 289, 84, 398
6953042466, -6, -9, -1000, -3, 4, -205, 291, 89, 397
6953042466, -6, -9, -1000, -3, 4, -205, 291, 89, 397
6953142473, 1, -6, -1000, -3, 2, -217, 293, 92, 394
6953142473, 1, -6, -1000, -3, 2, -217, 293, 92, 394
6953242488, -4, -7, -1001, -2, 2, -217, 295, 99, 394
6953242488, -4, -7, -1001, -2, 2, -217, 295, 99, 394
6953342618, -7, 13, -999, -3, 0, -225, 297, 106, 393
6953342618, -7, 13, -999, -3, 0, -225, 297, 106, 393
6953442504, -9, -7, -1003, -3, 0, -244, 299, 111, 392
6953442504, -9, -7, -1003, -3, 0, -244, 299, 111, 392
6953542437, 6, 4, -1003, -4, 1, -226, 301, 116, 390
6953542437, 6, 4, -1003, -4, 1, -226, 301, 116, 390
6953642588, 5, -1, -998, -4, 0, -202, 302, 123, 390
6953642588, 5, -1, -998, -4, 0, -202, 302, 123, 390
6953742425, 1, 1, -999, -3, 2, -170, 304, 128, 390
6953742425, 1, 1, -999, -3, 2, -170, 304, 128, 390
6953842498, -1, -6, -999, -4, 3, -154, 305, 133, 387
6953842498, -1, -6, -999, -4, 3, -154, 305, 133, 387
6953942596, -20, -14, -998, -4, 2, -173, 306, 137, 387
6953942596, -20, -14, -998, -4, 2, -173, 306, 137, 387
6954042599, -4, -6, -1000, -4, 1, -210, 307, 143, 388
6954042599, -4, -6, -1000, -4, 1, -210, 307, 143, 388
6954142496, -6, -6, -1002, -4, 0, -230, 308, 147, 385
6954142496, -6, -6, -1002, -4, 0, -230, 308, 147, 385
6954242482, -3, 5, -1001, -3, 3, -229, 309, 154, 384
6954242482, -3, 5, -1001, -3, 3, -229, 309, 154, 384
6954342433, -4, 4, -1000, -3, 0, -240, 310, 162, 385
6954342433, -4, 4, -1000, -3, 0, -240, 310, 162, 385
6954442429, -8, 3, -1001, -5, 2, -252, 311, 168, 383
6954442429, -8, 3, -1001, -5, 2, -252, 311, 168, 383
6954542559, -10, 8, -999, -4, -1, -256, 311, 173, 381
6954542559, -10, 8, -999, -4, -1, -256, 311, 173, 381
6954642429, -4, 9, -1002, -4, 0, -248, 312, 179, 378
6954642429, -4, 9, -1002, -4, 0, -248, 312, 179, 378
6954742451, -2, -4, -999, -2, 3, -233, 312, 189, 381
6954742451, -2, -4, -999, -2, 3, -233, 312, 189, 381
6954842601, -3, -4, -998, -4, 5, -225, 312, 194, 379
6954842601, -3, -4, -998, -4, 5, -225, 312, 194, 379
6954942493, -2, -2, -1001, -3, 0, -223, 313, 201, 379
6954942493, -2, -2, -1001, -3, 0, -223, 313, 201, 379
6955042416, -2, -2, -997, -4, 3, -217, 313, 208, 379
6955042416, -2, -2, -997, -4, 3, -217, 313, 208, 379
6955148048, -9, 4, -1000, -4, 4, -223, 313, 212, 378
6955148048, -9, 4, -1000, -4, 4, -223, 313, 212, 378
6955242640, -7, 2, -1001, -5, 1, -239, 312, 222, 381
6955242640, -7, 2, -1001, -5, 1, -239, 312, 222, 381
6955342506, -4, -3, -998, -4, 0, -232, 313, 222, 372
6955342506, -4, -3, -998, -4, 0, -232, 313, 222, 372
6955442507, -4, 1, -1001, -4, 6, -234, 312, 229, 372
6955442507, -4, 1, -1001, -4, 6, -234, 312, 229, 372
6955542451, -12, -1, -999, -3, -2, -239, 312, 236, 374
6955542451, -12, -1, -999, -3, -2, -239, 312, 236, 374
6955642378, -12, 9, -998, -5, 3, -243, 311, 244, 375
6955642378, -12, 9, -998, -5, 3, -243, 311, 244, 375
6955742434, -4, -3, -1001, -7, 1, -250, 311, 251, 374
6955742434, -4, -3, -1001, -7, 1, -250, 311, 251, 374
6955842396, -4, -8, -1000, -2, 6, -255, 310, 255, 372
6955842396, -4, -8, -1000, -2, 6, -255, 310, 255, 372
6955942477, -5, -6, -1000, -1, 2, -251, 309, 264, 373
6955942477, -5, -6, -1000, -1, 2, -251, 309, 264, 373
6956042528, -3, -10, -997, -2, 0, -251, 308, 271, 373
6956042528, -3, -10, -997, -2, 0, -251, 308, 271, 373
6956142424, -15, -5, -999, -2, 2, -246, 307, 277, 371
6956142424, -15, -5, -999, -2, 2, -246, 307, 277, 371
6956242611, -6, 2, -998, -4, 0, -247, 306, 281, 367
6956242611, -6, 2, -998, -4, 0, -247, 306, 281, 367
6956342460, -1, -5, -1003, -5, -1, -241, 304, 288, 366
6956342460, -1, -5, -1003, -5, -1, -241, 304, 288, 366
6956442400, 0, -1, -999, -1, 3, -224, 302, 297, 369
6956442400, 0, -1, -999, -1, 3, -224, 302, 297, 369
6956542409, -9, 7, -998, -4, 4, -233, 301, 303, 367
6956542409, -9, 7, -998, -4, 4, -233, 301, 303, 367
6956642627, -19, 24, -998, -5, 0, -228, 299, 310, 367
6956642627, -19, 24, -998, -5, 0, -228, 299, 310, 367
6956742479, -5, 7, -997, -5, 0, -233, 298, 315, 366
6956742479, -5, 7, -997, -5, 0, -233, 298, 315, 366
6956842460, 2, -19, -1001, -6, 1, -226, 296, 319, 364
6956842460, 2, -19, -1001, -6, 1, -226, 296, 319, 364
6956942503, -12, -12, -1002, -4, 8, -228, 295, 327, 366
6956942503, -12, -12, -1002, -4, 8, -228, 295, 327, 366
6957142422, -2, -10, -999, -4, 1, -246, 291, 338, 362
6957142422, -2, -10, -999, -4, 1, -246, 291, 338, 362
6957242457, -7, -6, -998, -5, 3, -245, 289, 346, 363
6957242457, -7, -6, -998, -5, 3, -245, 289, 346, 363
6957342449, 0, 8, -1000, -5, 4, -245, 286, 353, 363
6957342449, 0, 8, -1000, -5, 4, -245, 286, 353, 363
6957442463, -4, 8, -1000, -4, 4, -231, 284, 357, 361
6957442463, -4, 8, -1000, -4, 4, -231, 284, 357, 361
6957542580, 0, 2, -999, -5, 3, -222, 282, 362, 359
6957542580, 0, 2, -999, -5, 3, -222, 282, 362, 359
6957642428, -5, -12, -1001, -8, 2, -230, 279, 370, 360
6957642428, -5, -12, -1001, -8, 2, -230, 279, 370, 360
6957742397, -8, 3, -1000, -6, 3, -226, 276, 374, 359
6957742397, -8, 3, -1000, -6, 3, -226, 276, 374, 359
6957842443, 0, 3, -999, -5, 1, -221, 274, 378, 355
6957842443, 0, 3, -999, -5, 1, -221, 274, 378, 355
6957942474, -6, -15, -998, -5, 1, -226, 271, 386, 358
6957942474, -6, -15, -998, -5, 1, -226, 271, 386, 358
6958042475, -6, -11, -1002, -4, 3, -227, 268, 391, 356
6958042475, -6, -11, -1002, -4, 3, -227, 268, 391, 356
6958142489, -10, -1, -1001, -3, 1, -241, 265, 396, 354
6958142489, -10, -1, -1001, -3, 1, -241, 265, 396, 354
6958242441, 3, -2, -996, -3, 0, -229, 261, 402, 353
6958242441, 3, -2, -996, -3, 0, -229, 261, 402, 353
6958342613, -5, -2, -1001, -6, 6, -233, 258, 408, 354
6958342613, -5, -2, -1001, -6, 6, -233, 258, 408, 354
6958442479, 2, -9, -999, -6, 3, -224, 254, 412, 351
6958442479, 2, -9, -999, -6, 3, -224, 254, 412, 351
6958542399, 2, 2, -1002, -3, 3, -191, 251, 417, 350
6958542399, 2, 2, -1002, -3, 3, -191, 251, 417, 350
6958642388, -5, 9, -999, -3, 5, -179, 247, 423, 351
6958642388, -5, 9, -999, -3, 5, -179, 247, 423, 351
6958747529, 5, -11, -1001, -2, 4, -167, 244, 425, 350
6958747529, 5, -11, -1001, -2, 4, -167, 244, 425, 350
6958842408, -3, 0, -999, -4, 0, -174, 241, 427, 346
6958842408, -3, 0, -999, -4, 0, -174, 241, 427, 346
6958942416, -3, 0, -999, -4, 1, -177, 238, 434, 348
6958942416, -3, 0, -999, -4, 1, -177, 238, 434, 348
6959042506, -4, -2, -1000, -3, 1, -178, 235, 437, 347
6959042506, -4, -2, -1000, -3, 1, -178, 235, 437, 347
6959142429, -12, 1, -1001, -3, 4, -192, 231, 443, 346
6959142429, -12, 1, -1001, -3, 4, -192, 231, 443, 346
6959242447, 4, -14, -1000, -5, 1, -216, 227, 448, 346
6959242447, 4, -14, -1000, -5, 1, -216, 227, 448, 346
6959342483, -10, 9, -999, -5, 3, -210, 223, 452, 345
6959342483, -10, 9, -999, -5, 3, -210, 223, 452, 345
6959442384, -2, 1, -1000, -4, 0, -226, 219, 456, 344
6959442384, -2, 1, -1000, -4, 0, -226, 219, 456, 344
6959542395, 0, -6, -1000, -4, 0, -226, 215, 461, 343
6959542395, 0, -6, -1000, -4, 0, -226, 215, 461, 343
6959642417, -1, -9, -998, -6, -4, -219, 210, 465, 342
6959642417, -1, -9, -998, -6, -4, -219, 210, 465, 342
6959742414, -13, 1, -1000, -6, 0, -241, 205, 469, 341
6959742414, -13, 1, -1000, -6, 0, -241, 205, 469, 341
6959842411, -5, 9, -1001, -2, 3, -236, 200, 472, 338
6959842411, -5, 9, -1001, -2, 3, -236, 200, 472, 338
6959942458, -2, -12, -1001, -4, -1, -234, 195, 477, 338
6959942458, -2, -12, -1001, -4, -1, -234, 195, 477, 338
6960042419, 5, -17, -999, -5, 0, -212, 190, 482, 336
6960042419, 5, -17, -999, -5, 0, -212, 190, 482, 336
6960142371, -4, 5, -1002, -6, 4, -189, 185, 485, 336
6960142371, -4, 5, -1002, -6, 4, -189, 185, 485, 336
6960242427, -8, 3, -1000, -7, 3, -208, 180, 489, 335
6960242427, -8, 3, -1000, -7, 3, -208, 180, 489, 335
6960342870, -5, -8, -1001, -4, 5, -206, 175, 493, 335
6960342870, -5, -8, -1001, -4, 5, -206, 175, 493, 335
6960442544, -6, -7, -1001, -6, 5, -213, 170, 497, 333
6960442544, -6, -7, -1001, -6, 5, -213, 170, 497, 333
6960542491, -5, -13, -1002, -5, -3, -225, 165, 494, 326
6960542491, -5, -13, -1002, -5, -3, -225, 165, 494, 326
6960642520, -3, 0, -998, -7, 3, -229, 159, 500, 328
6960642520, -3, 0, -998, -7, 3, -229, 159, 500, 328
6960742384, -13, 4, -1000, -6, 4, -251, 153, 496, 319
6960742384, -13, 4, -1000, -6, 4, -251, 153, 496, 319
6960842424, -8, -11, -1001, -6, 2, -270, 147, 507, 326
6960842424, -8, -11, -1001, -6, 2, -270, 147, 507, 326
6960942378, -3, 1, -999, -6, 1, -287, 140, 511, 325
6960942378, -3, 1, -999, -6, 1, -287, 140, 511, 325
6961042401, -5, 9, -1001, -5, 0, -288, 132, 515, 323
6961042401, -5, 9, -1001, -5, 0, -288, 132, 515, 323
6961142480, -8, 2, -1001, -5, 2, -286, 125, 517, 321
6961142480, -8, 2, -1001, -5, 2, -286, 125, 517, 321
6961242513, -4, -1, -997, -8, 6, -287, 117, 520, 319
6961242513, -4, -1, -997, -8, 6, -287, 117, 520, 319
6961342452, 7, -15, -1000, -4, 0, -279, 109, 517, 311
6961342452, 7, -15, -1000, -4, 0, -279, 109, 517, 311
6961442470, -2, -7, -1001, -6, 4, -260, 101, 526, 316
6961442470, -2, -7, -1001, -6, 4, -260, 101, 526, 316
6961542399, 1, 6, -999, -5, 3, -242, 93, 528, 313
6961542399, 1, 6, -999, -5, 3, -242, 93, 528, 313
6961642409, 2, 9, -1001, -5, 2, -206, 86, 529, 311
6961642409, 2, 9, -1001, -5, 2, -206, 86, 529, 311
6961747507, -2, 7, -998, -5, 5, -193, 80, 531, 310
6961747507, -2, 7, -998, -5, 5, -193, 80, 531, 310
6961842415, 6, -2, -998, -5, 1, -187, 74, 530, 306
6961842415, 6, -2, -998, -5, 1, -187, 74, 530, 306
6961942427, -2, -20, -1001, -4, -1, -167, 69, 533, 307
6961942427, -2, -20, -1001, -4, -1, -167, 69, 533, 307
6962042504, 1, -7, -1000, -5, 0, -166, 64, 534, 305
6962042504, 1, -7, -1000, -5, 0, -166, 64, 534, 305
6962142383, 2, 10, -998, -5, 8, -158, 59, 533, 302
6962142383, 2, 10, -998, -5, 8, -158, 59, 533, 302
6962242396, -11, 0, -1001, -4, 2, -177, 54, 532, 300
6962242396, -11, 0, -1001, -4, 2, -177, 54, 532, 300
6962342515, -16, -7, -999, -4, 2, -213, 49, 533, 300
6962342515, -16, -7, -999, -4, 2, -213, 49, 533, 300
6962442398, -1, -28, -998, -2, 0, -251, 43, 534, 298
6962442398, -1, -28, -998, -2, 0, -251, 43, 534, 298
6962542474, -7, -19, -998, -5, 5, -276, 37, 533, 296
6962542474, -7, -19, -998, -5, 5, -276, 37, 533, 296
6962642483, -2, 0, -997, -5, 0, -301, 27, 533, 291
6962642483, -2, 0, -997, -5, 0, -301, 27, 533, 291
6962742527, -2, 9, -1000, -4, 2, -297, 18, 534, 289
6962742527, -2, 9, -1000, -4, 2, -297, 18, 534, 289
6962842396, -2, 11, -1005, -6, 6, -280, 9, 531, 283
6962842396, -2, 11, -1005, -6, 6, -280, 9, 531, 283
6962942434, -2, 3, -1000, -5, 3, -265, 0, 531, 282
6962942434, -2, 3, -1000, -5, 3, -265, 0, 531, 282
6963042382, 5, -1, -997, -4, 0, -239, -8, 531, 280
6963042382, 5, -1, -997, -4, 0, -239, -8, 531, 280
6963142421, 14, -6, -1000, -7, 0, -222, -16, 530, 278
6963142421, 14, -6, -1000, -7, 0, -222, -16, 530, 278
6963242609, 3, 15, -999, -7, 0, -200, -23, 525, 272
6963242609, 3, 15, -999, -7, 0, -200, -23, 525, 272
6963342410, 0, 18, -1000, -8, 2, -199, -29, 527, 273
6963342410, 0, 18, -1000, -8, 2, -199, -29, 527, 273
6963442410, -6, 0, -1001, -5, 4, -207, -36, 528, 273
6963442410, -6, 0, -1001, -5, 4, -207, -36, 528, 273
6963542454, -7, -12, -998, -4, 4, -215, -43, 525, 270
6963542454, -7, -12, -998, -4, 4, -215, -43, 525, 270
6963642450, 4, -10, -1000, -4, -4, -211, -50, 524, 269
6963642450, 4, -10, -1000, -4, -4, -211, -50, 524, 269
6963742390, -2, -4, -1000, -4, 3, -188, -58, 523, 269
6963742390, -2, -4, -1000, -4, 3, -188, -58, 523, 269
6963842467, 1, -1, -1000, -5, 0, -196, -64, 521, 266
6963842467, 1, -1, -1000, -5, 0, -196, -64, 521, 266
6963942406, -5, -9, -998, -4, 0, -188, -70, 519, 264
6963942406, -5, -9, -998, -4, 0, -188, -70, 519, 264
6964042612, 2, 6, -1000, -5, 0, -191, -77, 519, 265
6964042612, 2, 6, -1000, -5, 0, -191, -77, 519, 265
6964142468, -8, 8, -998, -6, 4, -196, -83, 514, 261
6964142468, -8, 8, -998, -6, 4, -196, -83, 514, 261
6964242377, -1, 2, -1001, -6, 4, -218, -89, 513, 260
6964242377, -1, 2, -1001, -6, 4, -218, -89, 513, 260
6964342383, 2, 7, -1000, -2, 4, -212, -97, 512, 260
6964342383, 2, 7, -1000, -2, 4, -212, -97, 512, 260
6964442578, -6, -14, -998, -2, -1, -216, -104, 509, 258
6964442578, -6, -14, -998, -2, -1, -216, -104, 509, 258
6964542512, -6, -10, -999, -3, 0, -225, -111, 504, 254
6964542512, -6, -10, -999, -3, 0, -225, -111, 504, 254
6964642392, -5, 3, -999, -3, -3, -219, -119, 503, 255
6964642392, -5, 3, -999, -3, -3, -219, -119, 503, 255
6964742499, -1, 1, -1000, -4, 0, -227, -126, 500, 254
6964742499, -1, 1, -1000, -4, 0, -227, -126, 500, 254
6964842401, -4, -4, -999, -3, 0, -228, -133, 494, 249
6964842401, -4, -4, -999, -3, 0, -228, -133, 494, 249
6964942478, -1, -2, -999, -4, 0, -225, -141, 492, 250
6964942478, -1, -2, -999, -4, 0, -225, -141, 492, 250
6965042449, -13, -6, -997, -5, -1, -235, -149, 490, 251
6965042449, -13, -6, -997, -5, -1, -235, -149, 490, 251
6965142365, -13, -14, -997, -3, 3, -254, -156, 485, 248
6965142365, -13, -14, -997, -3, 3, -254, -156, 485, 248
6965242426, -1, -6, -1001, -4, 0, -272, -164, 479, 247
6965242426, -1, -6, -1001, -4, 0, -272, -164, 479, 247
6965342676, -5, 0, -999, -5, 0, -255, -173, 475, 247
6965342676, -5, 0, -999, -5, 0, -255, -173, 475, 247
6965442448, -1, 14, -999, -4, 1, -227, -181, 469, 246
6965442448, -1, 14, -999, -4, 1, -227, -181, 469, 246
6965542893, -3, 8, -999, -4, 2, -209, -188, 463, 244
6965542893, -3, 8, -999, -4, 2, -209, -188, 463, 244
6965642619, -8, -11, -1003, -3, 2, -220, -195, 459, 242
6965642619, -8, -11, -1003, -3, 2, -220, -195, 459, 242
6965742600, -6, -9, -997, -5, 3, -233, -202, 448, 236
6965742600, -6, -9, -997, -5, 3, -233, -202, 448, 236
6965842434, -1, -8, -999, -5, 0, -225, -209, 447, 241
6965842434, -1, -8, -999, -5, 0, -225, -209, 447, 241
6965942418, -7, -7, -998, -6, 3, -229, -216, 445, 245
6965942418, -7, -7, -998, -6, 3, -229, -216, 445, 245
6966042389, -8, -3, -1001, -6, 3, -245, -223, 440, 245
6966042389, -8, -3, -1001, -6, 3, -245, -223, 440, 245
6966142371, -11, 5, -1000, -8, -1, -255, -230, 432, 244
6966142371, -11, 5, -1000, -8, -1, -255, -230, 432, 244
6966242581, 0, 20, -1000, -7, 2, -252, -237, 424, 242
6966242581, 0, 20, -1000, -7, 2, -252, -237, 424, 242
6966342428, -4, 15, -999, -4, 4, -241, -244, 416, 242
6966342428, -4, 15, -999, -4, 4, -241, -244, 416, 242
6966442414, -6, 2, -999, -3, 2, -237, -251, 409, 241
6966442414, -6, 2, -999, -3, 2, -237, -251, 409, 241
6966542477, -3, -5, -1001, -4, 0, -232, -258, 404, 244
6966542477, -3, -5, -1001, -4, 0, -232, -258, 404, 244
6966642434, 0, -7, -1000, -4, 2, -226, -264, 398, 245
6966642434, 0, -7, -1000, -4, 2, -226, -264, 398, 245
6966742393, -2, -6, -1001, -4, 3, -212, -271, 391, 247
6966742393, -2, -6, -1001, -4, 3, -212, -271, 391, 247
6966842567, -5, -7, -1001, -6, 0, -204, -276, 384, 245
6966842567, -5, -7, -1001, -6, 0, -204, -276, 384, 245
6966942411, -3, 3, -1000, -5, 5, -198, -281, 378, 246
6966942411, -3, 3, -1000, -5, 5, -198, -281, 378, 246
6967042562, 8, 0, -1001, -5, 3, -183, -286, 373, 249
6967042562, 8, 0, -1001, -5, 3, -183, -286, 373, 249
6967142479, 0, -9, -1000, -2, 3, -139, -290, 365, 248
6967142479, 0, -9, -1000, -2, 3, -139, -290, 365, 248
6967242424, -4, -12, -999, -3, 3, -121, -294, 361, 249
6967242424, -4, -12, -999, -3, 3, -121, -294, 361, 249
6967342382, -12, -17, -999, -4, 2, -139, -297, 358, 250
6967342382, -12, -17, -999, -4, 2, -139, -297, 358, 250
6967442427, -14, -11, -998, -5, 3, -180, -300, 353, 250
6967442427, -14, -11, -998, -5, 3, -180, -300, 353, 250
6967542405, -15, 3, -1001, -5, 5, -220, -304, 349, 251
6967542405, -15, 3, -1001, -5, 5, -220, -304, 349, 251
6967642423, -12, -5, -1000, -4, 6, -253, -308, 342, 253
6967642423, -12, -5, -1000, -4, 6, -253, -308, 342, 253
6967742507, -2, 11, -1001, -6, 0, -277, -313, 335, 254
6967742507, -2, 11, -1001, -6, 0, -277, -313, 335, 254
6967842432, -1, 0, -1000, -3, 0, -274, -319, 324, 254
6967842432, -1, 0, -1000, -3, 0, -274, -319, 324, 254
6967942406, -5, -4, -1001, -3, 6, -265, -324, 317, 258
6967942406, -5, -4, -1001, -3, 6, -265, -324, 317, 258
6968042441, -2, -7, -998, -4, 0, -269, -329, 306, 258
6968042441, -2, -7, -998, -4, 0, -269, -329, 306, 258
6968142387, -14, -9, -1006, -4, -4, -265, -333, 296, 260
6968142387, -14, -9, -1006, -4, -4, -265, -333, 296, 260
6968242383, 5, 15, -1000, -4, 4, -244, -337, 287, 260
6968242383, 5, 15, -1000, -4, 4, -244, -337, 287, 260
6968342449, -4, -22, -999, -3, 3, -240, -341, 279, 263
6968342449, -4, -22, -999, -3, 3, -240, -341, 279, 263
6968442399, -5, -22, -1001, -5, -1, -254, -344, 270, 264
6968442399, -5, -22, -1001, -5, -1, -254, -344, 270, 264
6968542420, -7, -7, -1001, -6, 1, -267, -347, 260, 266
6968542420, -7, -7, -1001, -6, 1, -267, -347, 260, 266
6968642426, -4, 14, -998, -8, 5, -263, -351, 251, 268
6968642426, -4, 14, -998, -8, 5, -263, -351, 251, 268
6968742361, -4, 2, -999, -6, 3, -267, -354, 241, 270
6968742361, -4, 2, -999, -6, 3, -267, -354, 241, 270
6968842382, -11, -1, -1001, -5, 0, -264, -356, 231, 271
6968842382, -11, -1, -1001, -5, 0, -264, -356, 231, 271
6968942426, -7, -4, -1000, -5, 1, -273, -359, 223, 274
6968942426, -7, -4, -1000, -5, 1, -273, -359, 223, 274
6969042408, -1, -19, -1000, -5, 5, -266, -361, 212, 277
6969042408, -1, -19, -1000, -5, 5, -266, -361, 212, 277
6969142403, -9, -6, -998, -5, 3, -277, -363, 202, 278
6969142403, -9, -6, -998, -5, 3, -277, -363, 202, 278
6969242463, -7, -1, -998, -6, 2, -299, -364, 192, 280
6969242463, -7, -1, -998, -6, 2, -299, -364, 192, 280
6969342375, -8, -7, -1001, -4, 0, -312, -366, 181, 283
6969342375, -8, -7, -1001, -4, 0, -312, -366, 181, 283
6969442381, 2, -1, -998, -6, 0, -313, -367, 171, 286
6969442381, 2, -1, -998, -6, 0, -313, -367, 171, 286
6969542436, -3, 0, -1001, -8, 7, -302, -368, 158, 288
6969542436, -3, 0, -1001, -8, 7, -302, -368, 158, 288
6969642354, -1, -6, -1002, -6, 3, -306, -368, 146, 290
6969642354, -1, -6, -1002, -6, 3, -306, -368, 146, 290
6969742408, -3, -5, -998, -4, -3, -309, -369, 136, 294
6969742408, -3, -5, -998, -4, -3, -309, -369, 136, 294
6969842454, -12, -6, -1002, -4, 2, -311, -368, 123, 295
6969842454, -12, -6, -1002, -4, 2, -311, -368, 123, 295
6969942412, -3, -4, -998, -3, 1, -313, -367, 113, 299
6969942412, -3, -4, -998, -3, 1, -313, -367, 113, 299
6970042385, 2, -8, -1001, -3, 0, -302, -366, 101, 301
6970042385, 2, -8, -1001, -3, 0, -302, -366, 101, 301
6970142423, 6, 0, -999, -3, 4, -270, -364, 91, 304
6970142423, 6, 0, -999, -3, 4, -270, -364, 91, 304
6970242390, -3, 1, -996, -4, 1, -261, -363, 81, 307
6970242390, -3, 1, -996, -4, 1, -261, -363, 81, 307
6970342381, -7, 4, -1000, -6, 3, -280, -361, 72, 309
6970342381, -7, 4, -1000, -6, 3, -280, -361, 72, 309
6970442473, -3, -9, -998, -4, 0, -294, -359, 63, 312
6970442473, -3, -9, -998, -4, 0, -294, -359, 63, 312
6970542416, -1, 2, -1001, -6, 0, -315, -356, 52, 314
6970542416, -1, 2, -1001, -6, 0, -315, -356, 52, 314
6970642726, -9, 6, -999, -7, 3, -329, -354, 42, 318
6970642726, -9, 6, -999, -7, 3, -329, -354, 42, 318
6970747667, -14, -4, -1002, -6, 3, -344, -350, 32, 322
6970747667, -14, -4, -1002, -6, 3, -344, -350, 32, 322
6970842439, 3, 0, -996, -7, 1, -349, -346, 9, 313
6970842439, 3, 0, -996, -7, 1, -349, -346, 9, 313
6970942433, 8, -6, -1001, -6, 4, -329, -341, 5, 324
6970942433, 8, -6, -1001, -6, 4, -329, -341, 5, 324
6971042436, 4, -8, -998, -6, 0, -275, -336, -3, 330
6971042436, 4, -8, -998, -6, 0, -275, -336, -3, 330
6971142357, -9, -5, -1001, -5, 4, -278, -331, -12, 333
6971142357, -9, -5, -1001, -5, 4, -278, -331, -12, 333
6971242385, -7, -1, -1002, -6, 0, -284, -327, -20, 336
6971242385, -7, -1, -1002, -6, 0, -284, -327, -20, 336
6971342577, -7, -3, -1000, -5, 2, -303, -322, -29, 339
6971342577, -7, -3, -1000, -5, 2, -303, -322, -29, 339
6971442439, 0, 1, -998, -4, 3, -317, -316, -45, 334
6971442439, 0, 1, -998, -4, 3, -317, -316, -45, 334
6971542455, -14, -3, -1002, -4, 3, -316, -309, -48, 345
6971542455, -14, -3, -1002, -4, 3, -316, -309, -48, 345
6971642514, 0, -12, -1000, -5, 0, -336, -303, -56, 348
6971642514, 0, -12, -1000, -5, 0, -336, -303, -56, 348
6971742411, 2, -12, -1001, -5, 2, -333, -296, -68, 349
6971742411, 2, -12, -1001, -5, 2, -333, -296, -68, 349
6971842421, 4, 1, -1000, -3, 1, -302, -288, -75, 354
6971842421, 4, 1, -1000, -3, 1, -302, -288, -75, 354
6971942488, -4, 9, -1002, -3, 2, -294, -280, -83, 358
6971942488, -4, 9, -1002, -3, 2, -294, -280, -83, 358
6972042407, 3, -10, -998, -5, 1, -303, -273, -90, 361
6972042407, 3, -10, -998, -5, 1, -303, -273, -90, 361
6972142446, -1, -11, -999, -6, 0, -307, -264, -97, 364
6972142446, -1, -11, -999, -6, 0, -307, -264, -97, 364
6972242521, 0, -5, -998, -5, 5, -309, -256, -105, 367
6972242521, 0, -5, -998, -5, 5, -309, -256, -105, 367
6972342466, 0, -2, -1000, -6, 3, -313, -247, -111, 370
6972342466, 0, -2, -1000, -6, 3, -313, -247, -111, 370
6972442420, 0, -1, -1001, -5, -2, -319, -238, -117, 374
6972442420, 0, -1, -1001, -5, -2, -319, -238, -117, 374
6972542483, 4, -13, -1004, -6, 2, -314, -228, -125, 377
6972542483, 4, -13, -1004, -6, 2, -314, -228, -125, 377
6972642410, -2, 8, -1000, -6, 2, -284, -218, -131, 382
6972642410, -2, 8, -1000, -6, 2, -284, -218, -131, 382
6972742437, -2, 1, -999, -4, 0, -268, -209, -137, 385
6972742437, -2, 1, -999, -4, 0, -268, -209, -137, 385
6972842551, 0, -22, -1000, -6, 2, -268, -200, -143, 386
6972842551, 0, -22, -1000, -6, 2, -268, -200, -143, 386
6972942517, -3, -4, -1002, -7, 0, -275, -191, -145, 392
6972942517, -3, -4, -1002, -7, 0, -275, -191, -145, 392
6973042487, -4, 2, -999, -7, 3, -288, -181, -150, 394
6973042487, -4, 2, -999, -7, 3, -288, -181, -150, 394
6973142548, -2, 8, -1000, -6, 0, -290, -171, -154, 398
6973142548, -2, 8, -1000, -6, 0, -290, -171, -154, 398
6973242401, 4, -4, -1000, -3, 1, -265, -160, -158, 400
6973242401, 4, -4, -1000, -3, 1, -265, -160, -158, 400
6973342404, 2, -8, -1001, -5, 5, -247, -150, -161, 403
6973342404, 2, -8, -1001, -5, 5, -247, -150, -161, 403
6973442498, 3, -11, -997, -6, 1, -236, -141, -163, 406
6973442498, 3, -11, -997, -6, 1, -236, -141, -163, 406
6973542456, -3, -1, -999, -3, 3, -244, -132, -166, 408
6973542456, -3, -1, -999, -3, 3, -244, -132, -166, 408
6973642458, 16, 12, -1005, -4, 3, -239, -122, -168, 411
6973642458, 16, 12, -1005, -4, 3, -239, -122, -168, 411
6973742506, -11, -7, -1001, -5, 3, -227, -113, -170, 413
6973742506, -11, -7, -1001, -5, 3, -227, -113, -170, 413
6973842404, 5, -4, -1001, -6, 0, -235, -104, -171, 415
6973842404, 5, -4, -1001, -6, 0, -235, -104, -171, 415
6973942448, 0, -2, -999, -6, 1, -226, -95, -171, 417
6973942448, 0, -2, -999, -6, 1, -226, -95, -171, 417
6974042434, -10, 0, -1000, -4, 2, -260, -85, -173, 418
6974042434, -10, 0, -1000, -4, 2, -260, -85, -173, 418
6974142413, -4, 5, -1003, -5, 5, -294, -75, -173, 419
6974142413, -4, 5, -1003, -5, 5, -294, -75, -173, 419
6974242416, -1, -7, -999, -6, 3, -320, -63, -175, 419
6974242416, -1, -7, -999, -6, 3, -320, -63, -175, 419
6974342464, -10, 10, -1000, -6, 3, -330, -50, -175, 421
6974342464, -10, 10, -1000, -6, 3, -330, -50, -175, 421
6974442408, 3, 8, -1001, -2, -1, -339, -36, -175, 422
6974442408, 3, 8, -1001, -2, -1, -339, -36, -175, 422
6974542389, 2, -14, -1002, -6, 3, -315, -22, -175, 423
6974542389, 2, -14, -1002, -6, 3, -315, -22, -175, 423
6974642455, 3, -19, -998, -7, 2, -322, -9, -174, 423
6974642455, 3, -19, -998, -7, 2, -322, -9, -174, 423
6974742373, -5, -4, -1001, -7, 0, -330, 4, -171, 425
6974742373, -5, -4, -1001, -7, 0, -330, 4, -171, 425
6974842440, 3, -6, -999, -5, 1, -336, 18, -169, 426
6974842440, 3, -6, -999, -5, 1, -336, 18, -169, 426
6974942474, 21, 4, -995, -8, 2, -361, 32, -166, 427
6974942474, 21, 4, -995, -8, 2, -361, 32, -166, 427
6975042430, 7, 16, -999, -9, 0, -331, 47, -162, 428
6975042430, 7, 16, -999, -9, 0, -331, 47, -162, 428
6975142402, 0, 2, -1001, -5, -1, -288, 61, -158, 428
6975142402, 0, 2, -1001, -5, -1, -288, 61, -158, 428
6975242446, -10, -3, -1002, -6, 0, -291, 73, -156, 426
6975242446, -10, -3, -1002, -6, 0, -291, 73, -156, 426
6975342390, -8, 0, -1002, -7, 7, -311, 85, -149, 428
6975342390, -8, 0, -1002, -7, 7, -311, 85, -149, 428
6975442404, 4, -17, -997, -6, -2, -311, 97, -144, 428
6975442404, 4, -17, -997, -6, -2, -311, 97, -144, 428
6975542516, 2, -9, -1001, -5, 6, -315, 109, -141, 426
6975542516, 2, -9, -1001, -5, 6, -315, 109, -141, 426
6975642476, 1, -4, -1002, -5, 5, -316, 121, -134, 427
6975642476, 1, -4, -1002, -5, 5, -316, 121, -134, 427
6975742454, -1, 2, -1004, -5, 7, -303, 133, -127, 426
6975742454, -1, 2, -1004, -5, 7, -303, 133, -127, 426
6975847701, 0, 10, -999, -4, 2, -302, 144, -119, 427
6975847701, 0, 10, -999, -4, 2, -302, 144, -119, 427
6975942619, 12, 4, -998, -6, 6, -288, 155, -114, 424
6975942619, 12, 4, -998, -6, 6, -288, 155, -114, 424
6976042474, -1, 18, -1001, -5, 2, -261, 165, -114, 416
6976042474, -1, 18, -1001, -5, 2, -261, 165, -114, 416
6976142508, -7, 11, -1002, -3, 0, -258, 175, -99, 424
6976142508, -7, 11, -1002, -3, 0, -258, 175, -99, 424
6976242391, 4, -9, -1000, -4, -4, -263, 184, -93, 422
6976242391, 4, -9, -1000, -4, -4, -263, 184, -93, 422
6976342392, 4, 2, -999, -5, 3, -253, 192, -86, 422
6976342392, 4, 2, -999, -5, 3, -253, 192, -86, 422
6976442451, -6, 6, -1001, -5, 3, -268, 200, -83, 415
6976442451, -6, 6, -1001, -5, 3, -268, 200, -83, 415
6976542460, 6, 2, -1002, -4, 1, -276, 208, -75, 415
6976542460, 6, 2, -1002, -4, 1, -276, 208, -75, 415
6976642467, 2, -1, -1001, -5, 4, -254, 216, -64, 416
6976642467, 2, -1, -1001, -5, 4, -254, 216, -64, 416
6976742505, 6, 11, -998, -5, 5, -226, 224, -56, 415
6976742505, 6, 11, -998, -5, 5, -226, 224, -56, 415
6976842457, 13, -5, -999, -5, 2, -178, 230, -50, 414
6976842457, 13, -5, -999, -5, 2, -178, 230, -50, 414
6976942413, 4, 0, -998, -5, 0, -144, 235, -43, 413
6976942413, 4, 0, -998, -5, 0, -144, 235, -43, 413
6977042497, 1, 14, -1000, -4, 2, -143, 239, -40, 412
6977042497, 1, 14, -1000, -4, 2, -143, 239, -40, 412
6977142422, 1, 12, -998, -3, 2, -127, 242, -35, 411
6977142422, 1, 12, -998, -3, 2, -127, 242, -35, 411
6977242455, 7, -5, -999, -3, 2, -116, 246, -31, 410
6977242455, 7, -5, -999, -3, 2, -116, 246, -31, 410
6977342489, 10, -17, -1000, -5, 0, -83, 249, -28, 409
6977342489, 10, -17, -1000, -5, 0, -83, 249, -28, 409
6977442463, 13, 14, -1000, -4, 4, -30, 251, -26, 408
6977442463, 13, 14, -1000, -4, 4, -30, 251, -26, 408
6977542435, 7, 11, -1001, -2, 1, 24, 251, -25, 408
6977542435, 7, 11, -1001, -2, 1, 24, 251, -25, 408
6977642451, 6, -16, -998, -2, 1, 51, 251, -26, 407
6977642451, 6, -16, -998, -2, 1, 51, 251, -26, 407
6977742378, 1, 0, -996, -3, -4, 58, 250, -26, 409
6977742378, 1, 0, -996, -3, -4, 58, 250, -26, 409
6977842386, -12, 2, -999, -4, 0, 33, 248, -29, 409
6977842386, -12, 2, -999, -4, 0, 33, 248, -29, 409
6977942506, -2, 0, -1001, -3, 3, 10, 248, -30, 409
6977942506, -2, 0, -1001, -3, 3, 10, 248, -30, 409
6978042465, -4, 0, -1001, -3, 2, -6, 247, -30, 409
6978042465, -4, 0, -1001, -3, 2, -6, 247, -30, 409
6978142473, -1, 2, -1001, -3, 1, -11, 247, -30, 410
6978142473, -1, 2, -1001, -3, 1, -11, 247, -30, 410
6978242465, 10, 2, -998, -3, -1, -1, 248, -31, 408
6978242465, 10, 2, -998, -3, -1, -1, 248, -31, 408
6978342386, -7, -16, -997, -3, -3, -25, 248, -29, 410
6978342386, -7, -16, -997, -3, -3, -25, 248, -29, 410
6978442414, -5, -18, -1001, -5, 5, -64, 248, -28, 410
6978442414, -5, -18, -1001, -5, 5, -64, 248, -28, 410
6978542477, -13, -17, -998, -5, 2, -118, 249, -28, 409
6978542477, -13, -17, -998, -5, 2, -118, 249, -28, 409
6978642453, -22, -14, -999, -6, 3, -168, 252, -24, 408
6978642453, -22, -14, -999, -6, 3, -168, 252, -24, 408
6978742490, 3, 7, -999, -4, 0, -190, 256, -19, 408
6978742490, 3, 7, -999, -4, 0, -190, 256, -19, 408
6978842518, 1, 14, -995, -6, 2, -180, 260, -12, 407
6978842518, 1, 14, -995, -6, 2, -180, 260, -12, 407
6978942418, -17, -9, -999, -7, 6, -206, 264, -7, 405
6978942418, -17, -9, -999, -7, 6, -206, 264, -7, 405
6979042447, -18, -10, -1000, -6, 2, -266, 268, 0, 406
6979042447, -18, -10, -1000, -6, 2, -266, 268, 0, 406
6979142481, -9, -2, -1003, -6, 2, -306, 273, 9, 404
6979142481, -9, -2, -1003, -6, 2, -306, 273, 9, 404
6979242446, 7, 9, -997, -6, 3, -314, 278, 19, 402
6979242446, 7, 9, -997, -6, 3, -314, 278, 19, 402
6979342503, -3, 19, -1002, -7, 13, -311, 284, 30, 400
6979342503, -3, 19, -1002, -7, 13, -311, 284, 30, 400
6979442561, -19, 8, -999, -4, 5, -329, 288, 40, 399
6979442561, -19, 8, -999, -4, 5, -329, 288, 40, 399
6979542509, 7, -3, -1004, -2, -4, -339, 292, 50, 397
6979542509, 7, -3, -1004, -2, -4, -339, 292, 50, 397
6979642465, 29, 2, -993, -3, 0, -310, 297, 61, 395
6979642465, 29, 2, -993, -3, 0, -310, 297, 61, 395
6979742532, 0, -6, -998, -6, 8, -303, 300, 71, 393
6979742532, 0, -6, -998, -6, 8, -303, 300, 71, 393
6979842444, -12, 8, -998, -3, 2, -299, 304, 80, 392
6979842444, -12, 8, -998, -3, 2, -299, 304, 80, 392
6979942497, 3, 9, -999, -1, -5, -300, 306, 90, 390
6979942497, 3, 9, -999, -1, -5, -300, 306, 90, 390
6980042633, 4, -2, -1001, -1, 1, -279, 309, 99, 388
6980042633, 4, -2, -1001, -1, 1, -279, 309, 99, 388
6980142487, -7, 4, -999, -2, 3, -290, 311, 109, 388
6980142487, -7, 4, -999, -2, 3, -290, 311, 109, 388
6980242509, -2, -12, -1003, -2, 0, -288, 313, 117, 386
6980242509, -2, -12, -1003, -2, 0, -288, 313, 117, 386
6980342485, 14, 13, -993, -4, 2, -304, 315, 127, 385
6980342485, 14, 13, -993, -4, 2, -304, 315, 127, 385
6980442491, -5, 16, -1000, -5, 0, -305, 316, 136, 383
6980442491, -5, 16, -1000, -5, 0, -305, 316, 136, 383
6980542413, -3, 11, -1001, -2, 2, -299, 318, 144, 382
6980542413, -3, 11, -1001, -2, 2, -299, 318, 144, 382
6980642608, 8, -1, -1002, 0, 0, -286, 320, 151, 380
6980642608, 8, -1, -1002, 0, 0, -286, 320, 151, 380
6980742433, 8, -11, -997, -1, 3, -275, 321, 161, 379
6980742433, 8, -11, -997, -1, 3, -275, 321, 161, 379
6980842683, -3, -13, -994, 0, 6, -287, 322, 166, 375
6980842683, -3, -13, -994, 0, 6, -287, 322, 166, 375
6980947636, 5, -11, -1003, -4, 2, -290, 323, 171, 371
6980947636, 5, -11, -1003, -4, 2, -290, 323, 171, 371
6981042832, -4, 1, -1001, -6, 0, -266, 323, 189, 379
6981042832, -4, 1, -1001, -6, 0, -266, 323, 189, 379
6981142632, -6, 3, -1004, -6, 0, -275, 324, 192, 372
6981142632, -6, 3, -1004, -6, 0, -275, 324, 192, 372
6981242485, -1, -5, -996, -5, 0, -279, 324, 196, 368
6981242485, -1, -5, -996, -5, 0, -279, 324, 196, 368
6981342388, 18, -18, -1001, -4, 2, -269, 324, 210, 373
6981342388, 18, -18, -1001, -4, 2, -269, 324, 210, 373
6981442657, 7, -6, -999, -4, 1, -233, 322, 219, 373
6981442657, 7, -6, -999, -4, 1, -233, 322, 219, 373
6981542461, 3, 24, -999, -5, 3, -197, 322, 217, 363
6981542461, 3, 24, -999, -5, 3, -197, 322, 217, 363
6981642414, 4, 24, -1000, -3, 3, -169, 321, 230, 370
6981642414, 4, 24, -1000, -3, 3, -169, 321, 230, 370
6981742445, 15, 4, -998, -4, -3, -136, 320, 235, 370
6981742445, 15, 4, -998, -4, -3, -136, 320, 235, 370
6981842498, 5, 4, -999, -4, 5, -93, 320, 239, 370
6981842498, 5, 4, -999, -4, 5, -93, 320, 239, 370
6981942428, -5, 2, -1002, -5, -2, -75, 320, 241, 369
6981942428, -5, 2, -1002, -5, -2, -75, 320, 241, 369
6982042410, 3, -10, -998, -6, 0, -64, 320, 244, 369
6982042410, 3, -10, -998, -6, 0, -64, 320, 244, 369
6982142444, 4, -8, -1000, -4, 3, -44, 320, 246, 369
6982142444, 4, -8, -1000, -4, 3, -44, 320, 246, 369
6982242384, -12, -1, -1002, -5, 1, -49, 320, 246, 368
6982242384, -12, -1, -1002, -5, 1, -49, 320, 246, 368
6982342395, 1, 9, -1000, -2, 1, -56, 320, 248, 368
6982342395, 1, 9, -1000, -2, 1, -56, 320, 248, 368
6982442477, -4, 7, -1003, -3, 3, -44, 319, 250, 368
6982442477, -4, 7, -1003, -3, 3, -44, 319, 250, 368
6982542468, -3, -1, -1003, -4, 2, -39, 319, 252, 368
6982542468, -3, -1, -1003, -4, 2, -39, 319, 252, 368
6982642448, -2, -7, -997, -3, 2, -28, 319, 252, 367
6982642448, -2, -7, -997, -3, 2, -28, 319, 252, 367
6982742458, 0, -6, -999, -3, 1, -16, 319, 256, 369
6982742458, 0, -6, -999, -3, 1, -16, 319, 256, 369
6982842446, 0, -3, -999, -4, 1, -4, 319, 257, 369
6982842446, 0, -3, -999, -4, 1, -4, 319, 257, 369
6982942505, -3, 1, -1002, -4, 2, 0, 319, 257, 368
6982942505, -3, 1, -1002, -4, 2, 0, 319, 257, 368
6983042562, -3, -2, -996, -3, 1, 10, 319, 257, 368
6983042562, -3, -2, -996, -3, 1, 10, 319, 257, 368
6983142481, 0, -1, -1000, -3, 1, 17, 319, 257, 369
6983142481, 0, -1, -1000, -3, 1, 17, 319, 257, 369
6983242495, -3, 1, -1001, -4, 0, 21, 319, 254, 367
6983242495, -3, 1, -1001, -4, 0, 21, 319, 254, 367
6983342580, -4, 0, -1001, -5, 3, 19, 319, 255, 369
6983342580, -4, 0, -1001, -5, 3, 19, 319, 255, 369
6983442448, -5, 6, -998, -5, 2, 17, 319, 255, 369
6983442448, -5, 6, -998, -5, 2, 17, 319, 255, 369
6983542464, -2, 1, -998, -5, 1, 13, 319, 254, 368
6983542464, -2, 1, -998, -5, 1, 13, 319, 254, 368
6983642500, -3, 2, -996, -4, 0, 11, 319, 252, 367
6983642500, -3, 2, -996, -4, 0, 11, 319, 252, 367
6983742491, -7, -5, -997, -2, 2, 7, 319, 253, 369
6983742491, -7, -5, -997, -2, 2, 7, 319, 253, 369
6983842491, 2, 1, -998, -3, -4, 0, 319, 253, 368
6983842491, 2, 1, -998, -3, -4, 0, 319, 253, 368
6983942592, -2, 2, -996, -4, 5, 0, 319, 251, 367
6983942592, -2, 2, -996, -4, 5, 0, 319, 251, 367
6984042495, -3, 5, -1000, -4, 4, -4, 319, 253, 369
6984042495, -3, 5, -1000, -4, 4, -4, 319, 253, 369
6984142409, -6, 6, -1001, -3, 3, -4, 319, 253, 369
6984142409, -6, 6, -1001, -3, 3, -4, 319, 253, 369
6984242494, -5, -1, -998, -5, 1, -4, 319, 253, 369
6984242494, -5, -1, -998, -5, 1, -4, 319, 253, 369
6984342424, -4, -2, -999, -5, 0, -3, 319, 254, 369
6984342424, -4, -2, -999, -5, 0, -3, 319, 254, 369
6984442536, 0, -1, -1003, -3, -1, -1, 319, 255, 369
6984442536, 0, -1, -1003, -3, -1, -1, 319, 255, 369
6984542470, 2, 3, -998, -4, 0, 0, 319, 252, 368
6984542470, 2, 3, -998, -4, 0, 0, 319, 252, 368
6984642393, -1, 0, -1002, -5, 3, 0, 319, 254, 368
6984642393, -1, 0, -1002, -5, 3, 0, 319, 254, 368
6984742413, -3, 0, -1003, -4, 2, 1, 319, 253, 369
6984742413, -3, 0, -1003, -4, 2, 1, 319, 253, 369
6984842426, -8, -2, -999, -4, 4, 0, 319, 254, 368
6984842426, -8, -2, -999, -4, 4, 0, 319, 254, 368
6984942372, -4, -1, -1002, -3, 0, -3, 319, 251, 367
6984942372, -4, -1, -1002, -3, 0, -3, 319, 251, 367
6985042379, -3, -3, -1002, -3, 0, -2, 319, 254, 369
6985042379, -3, -3, -1002, -3, 0, -2, 319, 254, 369
6985142456, 0, -2, -999, -3, 2, -2, 319, 254, 368
6985142456, 0, -2, -999, -3, 2, -2, 319, 254, 368
6985242404, -4, -3, -999, -4, 1, -3, 319, 253, 368
6985242404, -4, -3, -999, -4, 1, -3, 319, 253, 368
6985342415, -3, -3, -999, -3, 1, -1, 319, 253, 368
6985342415, -3, -3, -999, -3, 1, -1, 319, 253, 368
6985442460, 0, 1, -1000, -4, 2, 0, 319, 254, 369
6985442460, 0, 1, -1000, -4, 2, 0, 319, 254, 369
6985542379, -2, -2, -1000, -4, 2, 3, 319, 252, 367
6985542379, -2, -2, -1000, -4, 2, 3, 319, 252, 367
6985642368, -4, 0, -1002, -4, 2, 4, 319, 254, 369
6985642368, -4, 0, -1002, -4, 2, 4, 319, 254, 369
6985742430, -4, -2, -1000, -3, 2, 2, 319, 253, 369
6985742430, -4, -2, -1000, -3, 2, 2, 319, 253, 369
6985842410, -3, -2, -1000, -4, 2, 0, 319, 254, 369
6985842410, -3, -2, -1000, -4, 2, 0, 319, 254, 369
6985942425, -4, -2, -1000, -4, 1, -1, 319, 253, 367
6985942425, -4, -2, -1000, -4, 1, -1, 319, 253, 367
6986042480, -3, -2, -1002, -3, 2, -1, 319, 253, 368
6986042480, -3, -2, -1002, -3, 2, -1, 319, 253, 368
